IMU_ATTI(0):Longitude,IMU_ATTI(0):Latitude,IMU_ATTI(0):alti:D,IMUCalcs(0):PosN:C,IMUCalcs(0):PosE:C,IMUCalcs(0):PosD:C,IMUCalcs(0):Lat:C,IMUCalcs(0):Long:C,IMU_ATTI(0):velN,IMU_ATTI(0):velE,IMU_ATTI(0):velD,IMU_ATTI(0):accelX,IMU_ATTI(0):accelY,IMU_ATTI(0):accelZ,IMU_ATTI(0):accelComposite:C,IMU_ATTI(0):distanceTravelled:C,IMUCalcs(0):height:C,IMU_ATTI(0):roll:C,IMU_ATTI(0):pitch:C,IMU_ATTI(0):yaw:C,IMU_ATTI(0):yaw360:C,IMU_ATTI(0):magYaw:C,IMUCalcs(0):totalGyroX:C,IMUCalcs(0):totalGyroY:C,IMUCalcs(0):totalGyroZ:C,ATTI_MINI0:roll:C,ATTI_MINI0:pitch:C,ATTI_MINI0:yaw:C,IMU_ATTI(0):quatW:D,IMU_ATTI(0):quatX:D,IMU_ATTI(0):quatY:D,IMU_ATTI(0):quatZ:D,ATTI_MINI0:s_qx0,ATTI_MINI0:s_qz0,Clock:Tick#
-106.2164669645035,39.96121192040791,2396.984,0.0,0.0,0.0,39.961203484668,-106.21645906962873,-0.01116039,-0.0171429,-0.10243495,-0.01467273,-0.012332157,-1.0112845,1.0114661,0.0,-0.0,0.940089863930532,-1.0515810279280524,-136.90988319702157,223.09011680297843,-114.30469362281563,44.62865816141207,-1.6858688793726757,9.877195460023431,1.382216675773479,-0.0580810235194166,130.35619689289564,0.367135,-0.0055226227,-0.011000068,-0.93008626,-0.005523536,-0.9075484,0
-106.2164669645035,39.96121192040791,2396.984,0.0,0.0,0.0,39.961203484668,-106.21645906962873,-0.01116039,-0.0171429,-0.10243495,-0.01467273,-0.012332157,-1.0112845,1.0114661,0.0,-0.0,0.940089863930532,-1.0515810279280524,-136.90988319702157,223.09011680297843,-114.30469362281563,44.62865816141207,-1.6858688793726757,9.877195460023431,1.382216675773479,-0.0580810235194166,130.35619689289564,0.367135,-0.0055226227,-0.011000068,-0.93008626,-0.005523536,-0.9075484,610931701
-106.2164669645035,39.96121192040791,2396.9895,0.0,0.0,0.0,39.961203484668,-106.21645906962873,-0.009678431,-0.013413401,-0.1032755,-0.017568767,-0.016524792,-1.0116886,1.011976,0.0,-0.0,0.9481091823132016,-1.0608713662698823,-136.90827902300276,223.09172097699724,-113.09241656753991,44.644064307809096,-1.706428077583907,9.883232504926422,1.3943150792615449,-0.0570402043638281,130.35407036723484,0.36714628,-0.0055721705,-0.011094996,-0.93008035,-0.005559812,-0.9075394,611085168
-106.2164669645035,39.96121192040791,2396.9834,0.0,0.0,0.0,39.961203484668,-106.21645906962873,-0.0102848485,-0.012958585,-0.09054552,-0.01828174,-0.019829953,-1.0100689,1.0104289,0.0,-0.0,0.9484806900609164,-1.0614685111698834,-136.9104813654528,223.0895186345472,-114.2351184618292,44.65063640108324,-1.7172728124184702,9.885514465504013,1.3980542815678254,-0.0585459088274445,130.35439824116702,0.36712834,-0.005576039,-0.011099817,-0.9300874,-0.005585403,-0.90754026,611236655
-106.2164669645035,39.96121192040791,2396.998,0.0,0.0,0.0,39.961203484668,-106.21645906962873,-0.011247104,-0.012716987,-0.09919952,-0.016592938,-0.01700696,-1.0113862,1.0116652,0.0,-0.0,0.94106456815003,-1.0574077422966224,-136.90940097058137,223.09059902941863,-113.78024341825748,44.64891388946783,-1.7243868743111777,9.891487765156466,1.39141963954549,-0.0582627659792843,130.35522021368683,0.36713827,-0.0055667446,-0.01102667,-0.9300844,-0.005558779,-0.9075439,611389623
-106.2164669645035,39.96121192040791,2397.0066,0.0,0.0,0.0,39.961203484668,-106.21645906962873,-0.011309499,-0.013091538,-0.10364741,-0.01668132,-0.014656807,-1.0137402,1.0139834,0.0,-0.0,0.9402821826952016,-1.0545535155780397,-136.9122110115048,223.0877889884952,-114.69362254915744,44.653421825007776,-1.731105822923594,9.894241750915466,1.386288542864902,-0.056849913137257,130.35475547745244,0.36711583,-0.0055463556,-0.01101104,-0.9300936,-0.005528837,-0.90754277,611542891
-106.2164669645035,39.96121192040791,2397.0042,0.0,0.0,0.0,39.961203484668,-106.21645906962873,-0.011395451,-0.014296996,-0.09294107,-0.015448999,-0.014683037,-1.01191,1.0121344,0.0,-0.0,0.9434561461932354,-1.045462270982425,-136.91239454442567,223.0876054555744,-114.32357453453864,44.66401745300826,-1.7434363029981896,9.898902380394087,1.3868385333031972,-0.0545608692327555,130.35382161285287,0.36711487,-0.0054624113,-0.011007666,-0.9300945,-0.005512811,-0.9075394,611695294
-106.2164669645035,39.96121192040791,2396.9993,0.0,0.0,0.0,39.961203484668,-106.21645906962873,-0.01179743,-0.01505504,-0.08200304,-0.0154011715,-0.016840039,-1.0132376,1.0134946,0.0,-0.0,0.9472125654680488,-1.046852199480934,-136.91219921161996,223.08780078838004,-114.32959189588128,44.6741124018868,-1.757071966290651,9.904175238587936,1.3911213500260409,-0.0516397678638645,130.35070927363032,0.36711594,-0.005461635,-0.011042615,-0.93009365,-0.0055056596,-0.90752774,611858395
-106.2164669645035,39.96121192040791,2397.0056,0.0,0.0,0.0,39.961203484668,-106.21645906962873,-0.01226335,-0.015312603,-0.08528784,-0.01653138,-0.017942652,-1.0112164,1.0115106,0.0,-0.0,0.9465288306197664,-1.0500342235743605,-136.9135077755888,223.0864922244112,-114.44294276740082,44.67936912824636,-1.770113370970135,9.906901256044945,1.3935566194819342,-0.052808461532629,130.3511536401161,0.36710507,-0.00548978,-0.0110471975,-0.9300977,-0.005523795,-0.9075291,612011654
-106.2164669645035,39.96121192040791,2396.9578,0.0,0.0,0.0,39.961203484668,-106.21645906962873,-0.009781388,-0.009620975,-0.054568462,-0.015768334,-0.016626565,-1.0124767,1.012736,0.0,-0.0,0.9399477194205412,-1.0534865885136937,-136.9135564397224,223.0864435602776,-114.48555908718396,44.679267725830805,-1.784684600398974,9.912897899776464,1.3921462641803362,-0.0553443067645016,130.35026018272373,0.367105,-0.0055388976,-0.011004842,-0.93009794,-0.0055387956,-0.9075258,612165186
-106.2164669645035,39.96121192040791,2396.9373,0.0,0.0,0.0,39.961203484668,-106.21645906962873,-0.010885361,-0.01027711,-0.034940396,-0.017083704,-0.014934202,-1.0132554,1.0135094,0.0,-0.0,0.932052702447956,-1.0530515987976017,-136.91416157586002,223.08583842414,-115.25099649781107,44.67725455523135,-1.7954661981653983,9.917623935995662,1.386792584965371,-0.0624675396819517,130.34899341157933,0.36710095,-0.0055607264,-0.010939342,-0.9301002,-0.0055757146,-0.90752137,612326967
-106.2164669645035,39.96121192040791,2396.926,0.0,0.0,0.0,39.961203484668,-106.21645906962873,-0.010721881,-0.011253775,-0.025570797,-0.015751028,-0.01244317,-1.013724,1.0139227,0.0,-0.0,0.9360963518001608,-1.0505272584390914,-136.9131324677698,223.0868675322302,-113.86415422509936,44.68549801329119,-1.803381688471403,9.923367608353423,1.385177699563628,-0.0586620160554042,130.34598313823602,0.36710912,-0.00552718,-0.0109641235,-0.93009686,-0.0055399425,-0.9075107,612480400
-106.2164669645035,39.96121192040791,2396.9219,0.0,0.0,0.0,39.961203484668,-106.21645906962873,-0.010318564,-0.012654231,-0.021337055,-0.016107544,-0.015232555,-1.0090663,1.0093099,0.0,-0.0,0.9542006576344284,-1.0311839193817918,-136.9174128759555,223.0825871240445,-113.73265809254076,44.70131761142125,-1.8153856951120404,9.924003345032864,1.3878785789805683,-0.0553562243782639,130.34704067997814,0.36707443,-0.0053125685,-0.011048893,-0.9301108,-0.0055235582,-0.90751445,612633288
-106.2164669645035,39.96121192040791,2396.9097,0.0,0.0,0.0,39.961203484668,-106.21645906962873,-0.010684287,-0.013210306,-0.010409313,-0.016216032,-0.018143715,-1.0102859,1.0105789,0.0,-0.0,0.960083858478734,-1.0314864475907373,-136.91386460352297,223.08613539647703,-114.08600870780108,44.71331431144154,-1.824685224563764,9.931180010923775,1.3937148889072883,-0.0468124195964337,130.34446639482428,0.36710268,-0.005295826,-0.011097777,-0.93009925,-0.005477522,-0.90750486,612789332
-106.2164669645035,39.96121192040791,2396.907,0.0,0.0,0.0,39.961203484668,-106.21645906962873,-0.011596245,-0.012873596,-0.008244571,-0.017462866,-0.019468075,-1.0118483,1.0121863,0.0,-0.0,0.9531766602834956,-1.029669740160954,-136.9163030606184,223.0836969393816,-113.9564844246909,44.7137366217028,-1.833877000694811,9.934995794016352,1.3881167492101665,-0.0488412647719992,130.34483631543551,0.36708367,-0.005303453,-0.011035783,-0.93010736,-0.0054730433,-0.90750664,612949146
-106.2164669645035,39.96121192040791,2396.9202,0.0,0.0,0.0,39.961203484668,-106.21645906962873,-0.0031576913,-0.008172012,-0.019081304,-0.015027694,-0.016150286,-1.0115508,1.0117912,0.0,-0.0,0.9421277085900646,-1.0311826813559413,-136.91607294594206,223.083927054058,-113.5818695013514,44.70778973766708,-1.846702578689515,9.94081831969391,1.3841518848153316,-0.0533079901314658,130.34482766760902,0.36708653,-0.0053511183,-0.010950965,-0.930107,-0.0054938914,-0.90750676,613101416
-106.2164669645035,39.96121192040791,2396.9211,0.0,0.0,0.0,39.961203484668,-106.21645906962873,-0.0038281388,-0.00928085,-0.019534608,-0.015530165,-0.013545108,-1.0147017,1.0149109,0.0,-0.0,0.9376095983913904,-1.035262001968115,-136.91761381495408,223.08238618504592,-113.3560248192214,44.70726390218508,-1.861273726271334,9.943302725463298,1.3806343158824337,-0.0635859387286791,130.34408858732394,0.36707404,-0.0053988555,-0.01092729,-0.9301119,-0.0055624684,-0.90750396,613258089
-106.2164669645035,39.96121192040791,2396.9165,0.0,0.0,0.0,39.961203484668,-106.21645906962873,-0.0036098878,-0.010749656,-0.016816895,-0.016385484,-0.013673102,-1.0127523,1.0129771,0.0,-0.0,0.941173305381348,-1.0370746009314895,-136.91754762278757,223.08245237721243,-114.57091741237984,44.716730820298814,-1.873867508878233,9.948603558435366,1.3835122557118942,-0.0614899244890126,130.34100991209706,0.36707407,-0.0054021413,-0.010962023,-0.93011147,-0.005556702,-0.90749246,613417894
-106.2164669645035,39.96121192040791,2396.9067,0.0,0.0,0.0,39.961203484668,-106.21645906962873,-0.003159575,-0.011816172,-0.008445384,-0.017323863,-0.0155934105,-1.0138175,1.0140854,0.0,-0.0,0.938976225879391,-1.039451598305167,-136.920246699394,223.079753300606,-114.51259638108311,44.7318077429022,-1.8835114923185885,9.9510550422998,1.385015275284574,-0.0577231656770715,130.33968841048195,0.3670521,-0.0054287342,-0.010951677,-0.93012005,-0.005532503,-0.9074877,613570938
-106.2164669645035,39.96121192040791,2396.9087,0.0,0.0,0.0,39.961203484668,-106.21645906962873,-0.0036032468,-0.011969038,-0.010238986,-0.015817262,-0.018279906,-1.0122136,1.0125022,0.0,-0.0,0.94435656745558,-1.0363401433360109,-136.92311994708257,223.07688005291743,-114.41447278224058,44.74296951339645,-1.888977095540908,9.952713388774498,1.3857918122319657,-0.0465299848696039,130.34263311066107,0.3670286,-0.005386513,-0.010985245,-0.93012923,-0.0054464284,-0.90749896,613726831
-106.2164669645035,39.96121192040791,2396.903,0.0,0.0,0.0,39.961203484668,-106.21645906962873,-0.00519149,-0.011958117,-0.006068475,-0.0148026105,-0.019181723,-1.0117977,1.0120878,0.0,-0.0,0.9411613096167816,-1.036435211850663,-136.9224730955817,223.0775269044184,-113.61066466590562,44.7470231551246,-1.9013902919870265,9.958423137837656,1.3843001009930236,-0.0464897493642668,130.3418143528111,0.36703414,-0.0053974614,-0.010959646,-0.93012726,-0.0054407213,-0.90749604,613886655
-106.2164669645035,39.96121192040791,2396.929,0.0,0.0,0.0,39.961203484668,-106.21645906962873,-0.0072824103,-0.009346282,-0.026859913,-0.015571827,-0.015696919,-1.011773,1.0120146,0.0,-0.0,0.9352843630075568,-1.040342985198898,-136.92273690997135,223.07726309002865,-114.18241401513713,44.74652112297191,-1.9167340278219016,9.964228619024,1.384620183080735,-0.0508875612516676,130.339745951616,0.36703223,-0.005448036,-0.01092445,-0.93012816,-0.0054769167,-0.9074882,614039378
-106.2164669645035,39.96121192040791,2396.9329,0.0,0.0,0.0,39.961203484668,-106.21645906962873,-0.006288358,-0.009587504,-0.027062977,-0.016240079,-0.012894732,-1.0134943,1.0137064,0.0,-0.0,0.9349437184996224,-1.0470764601765634,-136.92465389151403,223.075346108486,-114.47453991745334,44.751589362864856,-1.9346417748557607,9.96744783231214,1.3848893272122396,-0.0565698031171837,130.33988247287238,0.36701608,-0.005503965,-0.01094316,-0.930134,-0.0055228896,-0.90748847,614202006
-106.2164669645035,39.96121192040791,2396.9307,0.0,0.0,0.0,39.961203484668,-106.21645906962873,-0.005901703,-0.010794526,-0.025357628,-0.016611196,-0.013694084,-1.0130402,1.013269,0.0,-0.0,0.9421372343799308,-1.0493602624247749,-136.92434804326678,223.0756519567332,-114.3299106690348,44.76435772925871,-1.9484151851170128,9.971704085377397,1.3928643033230852,-0.0534563164428582,130.33822065622385,0.3670176,-0.0054994253,-0.011008875,-0.9301326,-0.0055276123,-0.90748173,614355399
-106.2164669645035,39.96121192040791,2396.9385,0.0,0.0,0.0,39.961203484668,-106.21645906962873,-0.0058257105,-0.011287182,-0.029387442,-0.01825271,-0.018388817,-1.0118405,1.0121721,0.0,-0.0,0.9430177425193088,-1.0408154897186606,-136.92454572788574,223.07545427211423,-114.19020587276955,44.77342814561624,-1.9576437589013111,9.976909807486678,1.3939475234150187,-0.0517234647683193,130.33716015573253,0.36701673,-0.0054272655,-0.010988645,-0.93013364,-0.005517959,-0.9074778,614507817
-106.2164669645035,39.96121192040791,2396.9392,0.0,0.0,0.0,39.961203484668,-106.21645906962873,-0.006479145,-0.010274251,-0.026296811,-0.016723042,-0.016541174,-1.0113988,1.0116723,0.0,-0.0,0.9362273853490832,-1.0309758240259053,-136.92564375373428,223.0743562462657,-113.83791107646807,44.77364908132077,-1.9576821093016703,9.981126278209176,1.3846594031181252,-0.0464612390853676,130.33676992939849,0.36700943,-0.0053692586,-0.010901965,-0.9301379,-0.0054422873,-0.9074775,614670726
-106.2164669645035,39.96121192040791,2396.9292,0.0,0.0,0.0,39.961203484668,-106.21645906962873,-0.006890451,-0.0104530025,-0.017362934,-0.016365297,-0.01584473,-1.0111958,1.0114523,0.0,-0.0,0.9291234643451328,-1.023347637947408,-136.9273864028938,223.0726135971062,-114.47820979779785,44.77087103517353,-1.9604081277913448,9.983919906765353,1.369749461512615,-0.0469269774542451,130.33717550953767,0.3669967,-0.005330266,-0.010819794,-0.9301441,-0.0053913007,-0.9074804,614824154
-106.2164669645035,39.96121192040791,2396.8945,0.0,0.0,0.0,39.961203484668,-106.21645906962873,-0.0064707887,-0.008797374,0.01098025,-0.01410885,-0.013014998,-1.0116009,1.011783,0.0,-0.0,0.9277539538333376,-1.024480009885654,-136.9288096474,223.0711903526,-114.4677465580469,44.77465555763224,-1.9720312614676936,9.987789473853624,1.3666949947007316,-0.0467412307272271,130.33669100442845,0.36698514,-0.00534398,-0.010812238,-0.9301486,-0.0053786817,-0.907479,614977059
-106.2164669645035,39.96121192040791,2396.891,0.0,0.0,0.0,39.961203484668,-106.21645906962873,-0.006604482,-0.01053825,0.012704947,-0.014674611,-0.014448666,-1.0112969,1.0115066,0.0,-0.0,0.9329908823009014,-1.0287205822834464,-136.92978289421708,223.0702171057829,-113.93105876113982,44.78488178725816,-1.9860160650353031,9.99119746405476,1.3718767262172826,-0.0470690418515658,130.33524912407114,0.36697635,-0.0053617153,-0.010868279,-0.93015134,-0.0054004006,-0.9074732,615133092
-106.2164669645035,39.96121192040791,2396.8872,0.0,0.0,0.0,39.961203484668,-106.21645906962873,-0.0072273742,-0.011122333,0.01508579,-0.016561672,-0.018063236,-1.0121425,1.0124393,0.0,-0.0,0.9370668289466734,-1.031875449310636,-136.92931116748895,223.07068883251105,-114.49042565015742,44.79591252944802,-2.000802490480853,9.996203335631712,1.3784608774196472,-0.0448699389045513,130.33401963583353,0.3669795,-0.00537422,-0.010911488,-0.93014956,-0.005407229,-0.90746814,615292894
-106.2164669645035,39.96121192040791,2396.8801,0.0,0.0,0.0,39.961203484668,-106.21645906962873,-0.0077072163,-0.0107239885,0.021112274,-0.017705897,-0.018067352,-1.0103545,1.0106711,0.0,-0.0,0.9521748663405424,-1.0225423434579577,-136.93142849023818,223.06857150976185,-114.54505578547533,44.79866384495519,-2.0098331474724795,9.999338304940942,1.3756841248051952,-0.043787750010639,130.33545847604535,0.3669617,-0.005250265,-0.011004128,-0.9301562,-0.0053883484,-0.90747374,615445166
-106.2164669645035,39.96121192040791,2396.8774,0.0,0.0,0.0,39.961203484668,-106.21645906962873,-0.00796986,-0.010345102,0.020751016,-0.016497191,-0.015925337,-1.0120761,1.0123359,0.0,-0.0,0.9496114638063736,-1.016245827577427,-136.9315098338928,223.0684901661072,-113.92141909921398,44.80108434725595,-2.0145034783718327,10.003718817874066,1.3691415343198146,-0.0433263312766057,130.33458339225453,0.3669619,-0.0052073747,-0.010963154,-0.9301568,-0.0053608003,-0.90747106,615601839
-106.2164669645035,39.96121192040791,2396.8774,0.0,0.0,0.0,39.961203484668,-106.21645906962873,-0.008405661,-0.01135244,0.021052526,-0.014591968,-0.012945277,-1.0098042,1.0099926,0.0,-0.0,0.9520478342528848,-1.016078493190086,-136.93338017878477,223.06661982121523,-113.92324205002636,44.80918825243533,-2.023360468119645,10.006625534510754,1.3681057193702468,-0.0398670126339261,130.3343293198805,0.3669465,-0.0051983907,-0.010982309,-0.9301627,-0.005329633,-0.9074704,615761647
-106.2164669645035,39.96121192040791,2396.896,0.0,0.0,0.0,39.961203484668,-106.21645906962873,-0.0014886253,-0.015598066,0.0051288777,-0.015227808,-0.01622107,-1.0117549,1.0119995,0.0,-0.0,0.9533716472343852,-1.0190425401863024,-136.93516188202344,223.06483811797656,-114.0503059852444,44.81711929808161,-2.039195902794827,10.010269648669492,1.3696646600417937,-0.0389932856800816,130.3337624592194,0.36693165,-0.00521838,-0.011002464,-0.9301683,-0.0053284797,-0.9074683,615914559
-106.2164669645035,39.96121192040791,2396.8887,0.0,0.0,0.0,39.961203484668,-106.21645906962873,-0.0019849073,-0.01637083,0.01165615,-0.015938673,-0.016659785,-1.0127808,1.0130432,0.0,-0.0,0.9514575024076176,-1.0245602441249344,-136.93553681925445,223.06446318074555,-114.39228170876557,44.821216597267394,-2.0563232059367604,10.015419472728311,1.3714278578148542,-0.0431796619337643,130.33342072984985,0.36692825,-0.0052693365,-0.011004578,-0.9301693,-0.0053681256,-0.90746677,616076991
-106.2164669645035,39.96121192040791,2396.8733,0.0,0.0,0.0,39.961203484668,-106.21645906962873,-0.000667338,-0.016613519,0.008269867,-0.015956888,-0.016017506,-1.0114038,1.0116565,0.0,-0.0,0.9480781737983418,-1.028369087253378,-136.93617634523747,223.06382365476253,-114.30808314344742,44.822670628003735,-2.069809476152184,10.018672254638144,1.3731937097204434,-0.049288651385539,130.33316243091943,0.36692306,-0.0053111394,-0.010989316,-0.9301713,-0.005422999,-0.9074653,616230405
-106.2164669645035,39.96121192040791,2396.8853,0.0,0.0,0.0,39.961203484668,-106.21645906962873,-0.0011340149,-0.017092934,-0.00117451,-0.016185857,-0.01434965,-1.0127813,1.0130122,0.0,-0.0,0.9063469159711104,-1.0275698880136108,-136.9343779595657,223.0656220404344,-114.23934478627925,44.827629829145735,-2.085099353447984,10.026243921135755,1.3725802031003818,-0.0495871883784443,130.33040971236406,0.36694178,-0.00543816,-0.0106481165,-0.9301671,-0.0054233717,-0.90745527,616382630
-106.2164669645035,39.96121192040791,2396.892,0.0,0.0,0.0,39.961203484668,-106.21645906962873,-0.0015006352,-0.017543564,-0.0054376354,-0.016530203,-0.01590011,-1.0102514,1.0105118,0.0,-0.0,0.9066686568429378,-1.0336053679806394,-136.93862702776707,223.06137297223293,-114.36973469928044,44.83414945687929,-2.10140301084368,10.0269757803318,1.375942810226684,-0.0543480746259305,130.3319087274374,0.36690676,-0.0054865154,-0.010669852,-0.93018043,-0.005473257,-0.9074602,616545832
-106.2164669645035,39.96121192040791,2396.8845,0.0,0.0,0.0,39.961203484668,-106.21645906962873,-0.0017624595,-0.017889213,0.0016284417,-0.017819943,-0.015399813,-1.0117741,1.0120481,0.0,-0.0,0.9089435955234304,-1.035254577588196,-136.93476419058976,223.06523580941024,-113.23805511922308,44.84187260320931,-2.113385680858411,10.035470025910076,1.3804740488845768,-0.0533462087703234,130.32643969036425,0.36693776,-0.005492255,-0.010693783,-0.9301679,-0.0054824417,-0.90743977,616699158
-106.2164669645035,39.96121192040791,2396.8909,0.0,0.0,0.0,39.961203484668,-106.21645906962873,-0.009397297,-0.006360271,-0.0032155945,-0.017161414,-0.016036373,-1.0096688,1.0099419,0.0,-0.0,0.9083458129097504,-1.0321309325694428,-136.93823608628267,223.06176391371733,-114.14826560694311,44.84653186199037,-2.1211137958522923,10.036045165890858,1.3778992581505531,-0.0522847004194212,130.32764064927798,0.3669099,-0.0054691387,-0.010678763,-0.9301792,-0.0054644863,-0.9074445,616850266
-106.2164669645035,39.96121192040791,2396.9,0.0,0.0,0.0,39.961203484668,-106.21645906962873,-0.009629689,-0.006779721,-0.010324824,-0.016821546,-0.016175035,-1.0128652,1.0131339,0.0,-0.0,0.9075908677661972,-1.0235686439501563,-136.93513009032495,223.06486990967505,-114.35117537641294,44.85320394899368,-2.127067057223226,10.045439704390464,1.373202572994667,-0.0474360055652045,130.3248251965063,0.36693594,-0.005401766,-0.010645365,-0.93016964,-0.0054091387,-0.9074349,617014438
-106.2164669645035,39.96121192040791,2396.902,0.0,0.0,0.0,39.961203484668,-106.21645906962873,-0.010103649,-0.0067623705,-0.012306951,-0.015983636,-0.017302841,-1.0102625,1.010537,0.0,-0.0,0.9557842942204136,-1.004502503776196,-136.93681732806596,223.06318267193404,-113.67608659917254,44.8588714655951,-2.1328245653901345,10.047020039628984,1.3687408019022933,-0.0438443390778588,130.32475191326606,0.36691934,-0.0050927857,-0.010975415,-0.9301741,-0.00536435,-0.9074351,617167907
-106.2164669645035,39.96121192040791,2396.908,0.0,0.0,0.0,39.961203484668,-106.21645906962873,-0.010858908,-0.00686996,-0.016198248,-0.015597377,-0.016775254,-1.0121006,1.0123597,0.0,-0.0,0.956020721995077,-1.0032908694366602,-136.93416447470082,223.0658355252992,-113.35198335879414,44.865074810303454,-2.143542120738996,10.055334354919063,1.3676485849470394,-0.0424114953466134,130.32272838799648,0.36694095,-0.0050819395,-0.010973572,-0.93016565,-0.0053491886,-0.90742797,617320721
-106.2164669645035,39.96121192040791,2396.9072,0.0,0.0,0.0,39.961203484668,-106.21645906962873,-0.011040803,-0.007390797,-0.014637409,-0.016180132,-0.016242111,-1.0128424,1.0131019,0.0,-0.0,0.9531966986840056,-1.0035413849516912,-136.94064471647917,223.05935528352083,-113.6776045102876,44.867506522701404,-2.152928602997658,10.05326242641671,1.364772374369158,-0.0423371854827939,130.32596085523392,0.3668886,-0.0050936383,-0.010951164,-0.9301865,-0.005337757,-0.90744007,617476836
-106.2164669645035,39.96121192040791,2396.9233,0.0,0.0,0.0,39.961203484668,-106.21645906962873,0.0045246757,-0.0134387,-0.02717655,-0.0149637945,-0.016790058,-1.0121095,1.0123594,0.0,-0.0,0.951422863014489,-1.0045291996171215,-136.9374507702368,223.0625492297632,-113.79984605058532,44.87140508329144,-2.166537855454376,10.061211120534688,1.3641722138378145,-0.0444608539092211,130.32223300282982,0.36691463,-0.005107033,-0.010940071,-0.9301763,-0.0053527206,-0.90742636,617636671
-106.2164669645035,39.96121192040791,2396.9248,0.0,0.0,0.0,39.961203484668,-106.21645906962873,0.003922176,-0.014248578,-0.024688877,-0.01533694,-0.015928801,-1.0112382,1.01148,0.0,-0.0,0.9509649342606648,-1.0079067187256836,-136.93867189281323,223.0613281071868,-114.23526477615324,44.87756167436689,-2.180955628834536,10.064971792473523,1.3652190033885565,-0.0448690977893974,130.32215544383487,0.3669044,-0.0051360335,-0.010947114,-0.9301801,-0.0053597977,-0.9074259,617789114
-106.2164669645035,39.96121192040791,2396.9268,0.0,0.0,0.0,39.961203484668,-106.21645906962873,0.0035021338,-0.014882363,-0.023041788,-0.01654204,-0.015570936,-1.0115635,1.0118186,0.0,-0.0,0.953335300121414,-1.0096715651250965,-136.93766203139742,223.06233796860252,-114.73473432002967,44.88424087586864,-2.1933651562560184,10.069988963207717,1.3684915202793384,-0.0468979465181075,130.32059556580506,0.36691222,-0.00514267,-0.01097205,-0.9301767,-0.0053880042,-0.9074198,617945606
-106.2164669645035,39.96121192040791,2396.9414,0.0,0.0,0.0,39.961203484668,-106.21645906962873,0.003895816,-0.015332049,-0.033489484,-0.017704234,-0.016084623,-1.0099635,1.0102468,0.0,-0.0,0.9557854500808788,-1.007695875864857,-136.9388792685038,223.0611207314962,-114.23916688443448,44.89371529186056,-2.2015073187584133,10.074009490918892,1.3673264646867616,-0.0418218555861613,130.3194172280533,0.36690226,-0.005118902,-0.010985557,-0.93018055,-0.005343647,-0.9074158,618105397
-106.2164669645035,39.96121192040791,2396.9556,0.0,0.0,0.0,39.961203484668,-106.21645906962873,0.0014110054,-0.013198717,-0.024685487,-0.017142497,-0.016901828,-1.0122188,1.012505,0.0,-0.0,0.9057616222226008,-1.0265171638558916,-136.9410317590963,223.0589682409037,-114.12941351074303,44.900153763506665,-2.206877445899718,10.07679016753222,1.365486525175342,-0.0391139403110934,130.31932207143927,0.36688796,-0.005432107,-0.01063968,-0.9301885,-0.005315468,-0.9074158,618258267
-106.2164669645035,39.96121192040791,2396.9473,0.0,0.0,0.0,39.961203484668,-106.21645906962873,0.0009838296,-0.013347274,-0.016081056,-0.015754312,-0.015677866,-1.0138677,1.0141113,0.0,-0.0,0.9040042689879448,-1.0220676239632074,-136.94162204926198,223.058377950738,-115.38836663669804,44.90353374782895,-2.2125065971716222,10.07984309152759,1.359009958558278,-0.0353207793746311,130.32086581620314,0.36688372,-0.005401672,-0.010611141,-0.9301906,-0.005261547,-0.90742224,618414326
-106.2164669645035,39.96121192040791,2396.9358,0.0,0.0,0.0,39.961203484668,-106.21645906962873,-2.8127804e-05,-0.0141852,-0.0071979533,-0.012976902,-0.015292968,-1.0114309,1.0116297,0.0,-0.0,0.9042045956293928,-1.024207528183924,-136.94305019438065,223.05694980561933,-114.1235579341916,44.90947243051781,-2.225121032747208,10.08423004653674,1.3586336424608811,-0.0350092301289389,130.3200208821705,0.36687192,-0.005418533,-0.010619551,-0.9301951,-0.005257779,-0.9074192,618574160
-106.2164669645035,39.96121192040791,2396.9507,0.0,0.0,0.0,39.961203484668,-106.21645906962873,-0.017110862,-0.009190294,-0.018674562,-0.014829088,-0.015876934,-1.0127512,1.0129842,0.0,-0.0,0.9054921317628664,-1.0314567235916638,-136.94086301710573,223.05913698289427,-114.40125100547247,44.9170320996657,-2.24398946142264,10.09072968696308,1.3600926799030453,-0.0355762462627287,130.31792228643184,0.36688888,-0.005473051,-0.010653315,-0.9301877,-0.005267812,-0.9074114,618726531
-106.2164669645035,39.96121192040791,2396.9548,0.0,0.0,0.0,39.961203484668,-106.21645906962873,-0.017966723,-0.009826816,-0.020959709,-0.015824523,-0.015761474,-1.0115111,1.0117577,0.0,-0.0,0.9080925542356812,-1.0388946697329515,-136.9452773912156,223.0547226087844,-113.72919909054627,44.92582907492792,-2.2638058041484297,10.090515938408494,1.36892436505799,-0.0382510988177631,130.3200844925683,0.36685213,-0.0055255108,-0.010698024,-0.9302014,-0.0053211665,-0.9074183,618889550
-106.2164669645035,39.96121192040791,2396.951,0.0,0.0,0.0,39.961203484668,-106.21645906962873,-0.018613372,-0.010095681,-0.016996551,-0.016526375,-0.016606636,-1.0111415,1.011413,0.0,-0.0,0.90623388734979,-1.0434827436663223,-136.94272316221628,223.0572768377837,-113.00499515294489,44.92916594798808,-2.278666395068282,10.097408507233643,1.372147563223591,-0.0437170528666846,130.3169434502335,0.3668726,-0.005568469,-0.010697749,-0.93019307,-0.0053765583,-0.9074063,619042907
-106.2164669645035,39.96121192040791,2396.9634,0.0,0.0,0.0,39.961203484668,-106.21645906962873,-0.019191638,-0.009857399,-0.025720423,-0.017505791,-0.017095236,-1.012169,1.0124646,0.0,-0.0,0.8909881071146686,-1.0131085818607457,-136.94518798407205,223.05481201592795,-113.99520635347102,44.92971154088841,-2.292388194766087,10.100775649339973,1.3715835703082382,-0.0456737886659573,130.31726255031407,0.36685684,-0.005370962,-0.010476638,-0.9302029,-0.005389956,-0.9074073,619195134
-106.2164669645035,39.96121192040791,2396.9487,0.0,0.0,0.0,39.961203484668,-106.21645906962873,-0.019016365,-0.009723047,-0.011492726,-0.017727962,-0.013755708,-1.0103961,1.0106453,0.0,-0.0,0.8889912769510884,-1.01171978863568,-136.94247514012127,223.05752485987875,-113.86483848905988,44.93303475607761,-2.302416272862271,10.108019188165123,1.368759794010754,-0.0496579990059108,130.31470035654132,0.36687922,-0.005365835,-0.01045611,-0.9301944,-0.005411392,-0.907398,619358449
-106.2164669645035,39.96121192040791,2396.9482,0.0,0.0,0.0,39.961203484668,-106.21645906962873,-0.018709484,-0.010169951,-0.010554925,-0.016828625,-0.014774456,-1.0112499,1.0114979,0.0,-0.0,0.8918755002418335,-1.0083021483531107,-136.9432275651568,223.0567724348432,-114.35044586115984,44.940514305724925,-2.308687743994318,10.111352815875795,1.365968968468978,-0.0452460793497566,130.31290672398964,0.36687312,-0.0053289244,-0.010468544,-0.9301968,-0.0053663915,-0.90739197,619511654
-106.2164669645035,39.96121192040791,2396.9473,0.0,0.0,0.0,39.961203484668,-106.21645906962873,-0.017643329,0.0043569882,-0.008749556,-0.016226325,-0.01558967,-1.0100703,1.0103209,0.0,-0.0,0.894172985480016,-1.0058414636208763,-136.9412194135237,223.0587805864763,-114.07908166020422,44.94880498102814,-2.317897802212108,10.118404042130445,1.3640467086999075,-0.0433023464438965,130.3114502432324,0.36688945,-0.0053014075,-0.010479408,-0.93019044,-0.005344088,-0.90738684,619664397
-106.2164669645035,39.96121192040791,2396.941,0.0,0.0,0.0,39.961203484668,-106.21645906962873,-0.018003868,0.004037268,-0.0031548147,-0.015797893,-0.018417835,-1.0128434,1.013134,0.0,-0.0,0.897716323331921,-1.003299568136962,-136.9425660378443,223.0574339621557,-113.75611252967198,44.95793880779579,-2.325815959659755,10.12133527322232,1.366113563769403,-0.0381604833294465,130.30959441968548,0.3668784,-0.005269549,-0.010499969,-0.93019474,-0.005311123,-0.9073801,619820600
-106.2164669645035,39.96121192040791,2396.942,0.0,0.0,0.0,39.961203484668,-106.21645906962873,-0.019047927,0.004243333,-0.0048901616,-0.01650562,-0.01641508,-1.0118984,1.0121661,0.0,-0.0,0.8979367738802078,-1.0030359464963556,-136.94008142930497,223.05991857069503,-113.85577959043069,44.96455094324202,-2.3351582072574417,10.128267542330086,1.364310224177546,-0.035095039298283,130.3070553674027,0.3668986,-0.0052664746,-0.010501029,-0.9301868,-0.0052804747,-0.90737104,619980402
-106.2164669645035,39.96121192040791,2396.9116,0.0,0.0,0.0,39.961203484668,-106.21645906962873,-0.018039381,0.0066725216,0.0056052855,-0.015225483,-0.016924461,-1.0116265,1.0118825,0.0,-0.0,0.8932965703752436,-0.9951426038724132,-136.94264338158663,223.05735661841337,-113.59772401988896,44.96528988648843,-2.344733616284421,10.13006501325281,1.3598761276997018,-0.0351115557629546,130.30763940371205,0.36687893,-0.0052174972,-0.010437975,-0.9301955,-0.0052642934,-0.9073736,620134110
-106.2164669645035,39.96121192040791,2396.9214,0.0,0.0,0.0,39.961203484668,-106.21645906962873,-0.018714331,0.0056874566,-0.002438473,-0.01449516,-0.01388613,-1.0099823,1.0101818,0.0,-0.0,0.8914441239426021,-1.0032918205033,-136.93932760365337,223.06067239634663,-113.16017482966112,44.969173727285416,-2.362536332123105,10.138588104002444,1.3599274786309987,-0.0407462614401449,130.3059362693945,0.3669053,-0.0052892785,-0.010449182,-0.9301846,-0.0053092567,-0.9073672,620295803
-106.2164669645035,39.96121192040791,2396.8958,0.0,0.0,0.0,39.961203484668,-106.21645906962873,-0.01900918,0.0046043466,0.019571278,-0.0155372545,-0.015038501,-1.0107316,1.0109628,0.0,-0.0,0.8938226388011034,-1.011177570279115,-136.94243416443962,223.0575658355604,-114.46510231391396,44.9763087505624,-2.381122712173797,10.140265280745488,1.3682054512767972,-0.0453127190352705,130.30588312278533,0.3668791,-0.005345957,-0.010493592,-0.9301941,-0.0053757722,-0.90736604,620449145
-106.21646692981986,39.96121191487876,2396.8997,0.0,0.0,0.0,39.961203484668,-106.21645906962873,-0.017594231,0.011042094,0.015606681,-0.018215086,-0.015107718,-1.0126783,1.0129547,0.0,-0.0,0.8973967873393983,-1.0146264717965197,-136.93849944106904,223.06150055893096,-114.10455391192048,44.98636426423884,-2.3972513571015868,10.14814974855647,1.3706611149032324,-0.044132267906728,130.30467781872747,0.3669104,-0.005362144,-0.01053383,-0.9301812,-0.0053755417,-0.9073613,620602205
-106.21646690007108,39.96121191014531,2396.904,0.0,0.0,0.0,39.961203484668,-106.21645906962873,-0.017330699,0.011406217,0.011711163,-0.018748183,-0.016898446,-1.0112938,1.0116087,0.0,-0.0,0.8983798556871091,-1.0105565348245873,-136.93973244380268,223.0602675561973,-113.17482753663651,44.99294290747216,-2.40347353968223,10.151239681719764,1.371676209063966,-0.0415065113295202,130.3009391689681,0.36690068,-0.0053260713,-0.010528721,-0.9301853,-0.0053588217,-0.90734774,620758101
-106.21646686521376,39.96121190463753,2396.903,0.0,0.0,0.0,39.961203484668,-106.21645906962873,-0.017259173,0.011731792,0.01295487,-0.017497728,-0.015325912,-1.0117745,1.0120419,0.0,-0.0,0.9814619949342204,-0.9818224277483436,-136.93433035606395,223.06566964393605,-114.38465889644544,44.99662898307066,-2.403255305962196,10.159889369417463,1.360521462187584,-0.0349235752153465,130.29551517441195,0.3669392,-0.004826194,-0.01111132,-0.93016607,-0.005266297,-0.9073292,620917903
-106.2164668485013,39.96121189091977,2396.9043,0.0,0.0,0.0,39.961203484668,-106.21645906962873,-0.017293107,0.0113352975,0.011172949,-0.014327122,-0.016231827,-1.0121944,1.0124259,0.0,-0.0,0.9817856995185495,-0.9753311968516638,-136.93617118613244,223.0638288138676,-114.57214478663496,45.00308485440318,-2.406284312949913,10.162626279502229,1.3555794476923857,-0.0314055543242245,130.2958052175129,0.36692482,-0.004772645,-0.011093085,-0.9301722,-0.0052202907,-0.9073309,621070305
-106.21646683022551,39.961211873871946,2396.9092,0.0,0.0,0.0,39.961203484668,-106.21645906962873,-0.017669683,0.010128782,0.0062523186,-0.01406035,-0.014696131,-1.0114253,1.0116297,0.0,-0.0,0.98466449308305,-0.9773433763371416,-136.93233636244173,223.06766363755827,-114.42751817970507,45.01187158839745,-2.420023876239532,10.171296478529904,1.3542778868110703,-0.0270679920557088,130.29276154809165,0.36695552,-0.004779384,-0.011123055,-0.93015975,-0.005181455,-0.90732,621233317
-106.21646681496637,39.9612118591217,2396.8936,0.0,0.0,0.0,39.961203484668,-106.21645906962873,0.013567434,-0.010620612,0.019297525,-0.014022952,-0.017320225,-1.0127854,1.0130305,0.0,-0.0,0.9837129249459772,-0.9870486789953552,-136.9361745040447,223.0638254959553,-112.873938933225,45.016468310482345,-2.438826018206021,10.171349740932364,1.3630976854004635,-0.0344491552854374,130.2946189608961,0.3669235,-0.0048615853,-0.011146247,-0.93017167,-0.0052720723,-0.90732557,621386655
-106.2164667974395,39.96121184171328,2396.901,0.0,0.0,0.0,39.961203484668,-106.21645906962873,0.012770908,-0.011029676,0.011522681,-0.017547453,-0.01642726,-1.0116929,1.0119784,0.0,-0.0,0.9805237385093116,-0.9958627292840132,-136.93140660908773,223.06859339091227,-114.41089194931877,45.019372918629465,-2.461624574542077,10.18063533436149,1.3657538108441087,-0.038025934021024,130.29153291884967,0.3669617,-0.004942883,-0.01114879,-0.9301562,-0.0053104213,-0.9073139,621539103
-106.21646677993952,39.96121182432445,2396.8962,0.0,0.0,0.0,39.961203484668,-106.21645906962873,0.012705622,-0.010874733,0.01416079,-0.018841797,-0.015905846,-1.0119246,1.012225,0.0,-0.0,0.9756030407544044,-0.9973133775936698,-136.93168421367227,223.06831578632773,-114.2649013037483,45.02064341333882,-2.474378716542381,10.18494471438636,1.3666674098959894,-0.0455446462729902,130.2900646645216,0.36695975,-0.004970449,-0.011113483,-0.9301572,-0.00537344,-0.9073081,621702203
-106.2164667694094,39.96121181091768,2396.8958,0.0,0.0,0.0,39.961203484668,-106.21645906962873,0.0134342555,-0.011003963,0.01472904,-0.01856913,-0.012937148,-1.0100137,1.0102671,0.0,-0.0,0.9017436085060478,-1.0263893732837102,-136.92882103927775,223.07117896072225,-113.5485564210173,45.02556586119632,-2.478590366584845,10.192467420193978,1.3608591670199868,-0.0414115449492269,130.28389124462254,0.36698744,-0.0054428093,-0.010607236,-0.9301495,-0.0053199846,-0.9072862,621855399
-106.21646677444394,39.96121180749998,2396.9033,0.0,0.0,0.0,39.961203484668,-106.21645906962873,0.014225048,-0.011573112,0.008143127,-0.0170092,-0.0147290295,-1.0108056,1.011056,0.0,-0.0,0.9078361200170332,-1.0138186024376783,-136.9318547638835,223.0681452361165,-113.75254687836647,45.03775812865975,-2.477282170038839,10.194284364595106,1.3563106769054358,-0.0341167766608874,130.28480860141633,0.36696345,-0.0053215325,-0.010616288,-0.9301596,-0.0052454583,-0.90729034,622008413
-106.21646696970666,39.961211830799655,2396.912,0.0,0.0,0.0,39.961203484668,-106.21645906962873,0.012633339,-0.013750773,0.0011770127,-0.013824085,-0.016978815,-1.0133557,1.0135922,0.0,-0.0,0.912809819508498,-1.0107386730256205,-136.92879691636483,223.0712030836352,-114.33664500005204,45.04897800370153,-2.4835763935749555,10.201605226950209,1.3533715189651954,-0.0232783099571976,130.28320288525228,0.36698806,-0.005280315,-0.010646936,-0.9301498,-0.0051490115,-0.9072852,622170720
-106.2164669748585,39.96121182747488,2396.8938,0.0,0.0,0.0,39.961203484668,-106.21645906962873,-0.009966417,-0.008340539,0.016739175,-0.014091339,-0.019080998,-1.0125631,1.0128409,0.0,-0.0,0.9112867103590488,-1.0104576178543,-136.92917848403624,223.07082151596376,-114.22203858615502,45.053300254133966,-2.493255612182358,10.205292191897016,1.352603686157046,-0.0221158550374764,130.28162350054686,0.36698508,-0.0052829497,-0.010633655,-0.93015105,-0.0051371376,-0.90727955,622324158
-106.2164669809232,39.9612118231221,2396.9092,0.0,0.0,0.0,39.961203484668,-106.21645906962873,-0.01129573,-0.00815461,0.002258398,-0.016824111,-0.016400682,-1.0121673,1.01244,0.0,-0.0,0.9044900707398984,-1.0174161227349476,-136.92789487060898,223.07210512939105,-114.00424253915772,45.05257680998583,-2.511698066517076,10.210888593465242,1.352910702985819,-0.026705856953323,130.281141789351,0.36699554,-0.0053610876,-0.010600834,-0.9301469,-0.00517465,-0.9072775,622476569
-106.21646698711218,39.96121181860531,2396.9238,0.0,0.0,0.0,39.961203484668,-106.21645906962873,-0.0110789575,-0.008691649,-0.009473397,-0.016926734,-0.01354506,-1.0129637,1.0131956,0.0,-0.0,0.8993532017466752,-1.0203070538173071,-136.92984962577262,223.07015037422732,-114.7065206668122,45.05333427117568,-2.526501007751128,10.213385933392182,1.3517551549216686,-0.0352010706408512,130.28169799742108,0.36697993,-0.005401191,-0.010568307,-0.9301532,-0.0052376203,-0.9072793,622639474
-106.2164669944078,39.96121181630874,2396.9255,0.0,0.0,0.0,39.961203484668,-106.21645906962873,-0.011120293,-0.0091140065,-0.010493697,-0.017728923,-0.015473678,-1.0107683,1.0110422,0.0,-0.0,0.8968152399180488,-0.983753641732055,-136.9298002993148,223.0701997006852,-113.3738517442319,45.05759689441003,-2.539545806589692,10.217880444337233,1.3542785700393425,-0.0390764319470699,130.27897560534504,0.36698392,-0.0051126084,-0.010430646,-0.9301548,-0.0052778115,-0.9072689,622792908
-106.21646698864494,39.96121179966004,2396.9275,0.0,0.0,0.0,39.961203484668,-106.21645906962873,-0.011161542,-0.009153308,-0.010539053,-0.016436825,-0.015835658,-1.010011,1.0102688,0.0,-0.0,0.901950195011004,-0.983117079031409,-136.93026521099108,223.0697347890089,-114.52967462686188,45.069507825610906,-2.5514935348950503,10.222386845628144,1.3544796871805789,-0.0346675373036827,130.27782853708229,0.3669797,-0.005091034,-0.0104702655,-0.9301561,-0.0052437484,-0.9072648,622945433
-106.21646698282656,39.9612117830096,2396.9312,0.0,0.0,0.0,39.961203484668,-106.21645906962873,-0.011417381,-0.009053228,-0.012429031,-0.017292967,-0.017449372,-1.0109594,1.0112579,0.0,-0.0,0.9023480633040626,-0.9785435825738464,-136.93154832599922,223.0684516740008,-113.71925926757764,45.07627950695301,-2.5597138417526595,10.225875023757762,1.3552412845274888,-0.0307805405055217,130.27877500555596,0.36696965,-0.005052753,-0.010458792,-0.9301604,-0.0052156798,-0.90726846,623108258
-106.2164669776585,39.961211768631,2396.932,0.0,0.0,0.0,39.961203484668,-106.21645906962873,-0.0077845305,0.0069006514,-0.012443615,-0.016459081,-0.018218994,-1.0107839,1.011082,0.0,-0.0,0.9008398828817858,-0.9766576459617844,-136.93337411253836,223.06662588746164,-113.92239134106568,45.079637813843824,-2.5665264189821984,10.227911056433609,1.3512992700266195,-0.0300301601122877,130.28015667106675,0.3669552,-0.005042441,-0.010440431,-0.9301664,-0.0051951497,-0.90727395,623261659
-106.2164669715362,39.96121175165885,2396.9224,0.0,0.0,0.0,39.961203484668,-106.21645906962873,-0.008698802,0.007141732,-0.003456073,-0.015491545,-0.015999489,-1.0135571,1.0138018,0.0,-0.0,0.896977834890626,-0.975078906686266,-136.93201900518562,223.0679809948144,-113.46818349420006,45.0813577879701,-2.577268606277562,10.233806512978315,1.3486832099431745,-0.0298379691417009,130.2792951816822,0.36696663,-0.005041876,-0.010404087,-0.93016225,-0.0051841107,-0.907271,623414117
-106.21646696557642,39.96121173449256,2396.9202,0.0,0.0,0.0,39.961203484668,-106.21645906962873,-0.008539567,0.006700715,-0.0006061988,-0.016108325,-0.013803265,-1.0110079,1.0112305,0.0,-0.0,0.8971354682086734,-0.9799246350633076,-136.93350382732828,223.0664961726717,-113.7047202860836,45.087364321961296,-2.5925901847721264,10.23690495765086,1.3500414700257914,-0.0344835840713766,130.27788888566397,0.3669542,-0.005080838,-0.010420819,-0.93016684,-0.0052260044,-0.90726554,623576963
-106.21646696211305,39.9612117216535,2396.9155,0.0,0.0,0.0,39.961203484668,-106.21645906962873,-0.008506566,0.0059982683,0.0031370695,-0.015568893,-0.0154764475,-1.0116323,1.0118705,0.0,-0.0,0.9354932545502505,-0.9804814197755136,-136.9338466673466,223.0661533326534,-113.83927383052044,45.09542680177136,-2.607180622070365,10.24004973219152,1.3543218352009037,-0.0343633133903675,130.2778012198543,0.36694765,-0.004962517,-0.0107339285,-0.9301664,-0.005240763,-0.9072648,623730405
-106.2164669481798,39.96121171791796,2396.9177,0.0,0.0,0.0,39.961203484668,-106.21645906962873,-0.008701362,0.005339407,0.0018644729,-0.015884832,-0.015879333,-1.0123757,1.0126249,0.0,-0.0,0.9373054302606296,-0.9845628569279196,-136.93533160146495,223.06466839853505,-114.08148722589904,45.10393119088146,-2.622803070243782,10.243214187860357,1.35690721139912,-0.0351458507498605,130.27806931380937,0.36693507,-0.0049899807,-0.010761643,-0.93017095,-0.0052564186,-0.9072655,623882804
-106.2164669343518,39.96121171415309,2396.9175,0.0,0.0,0.0,39.961203484668,-106.21645906962873,-0.008127448,0.0056466614,0.001244027,-0.017994154,-0.01720709,-1.0120907,1.0123968,0.0,-0.0,0.936273233143748,-0.9816189717913374,-136.93452684890056,223.06547315109944,-113.83663648644236,45.10897073002345,-2.6317124397248848,10.249215165390805,1.3554958183599306,-0.0330971654622678,130.27683257257846,0.36694202,-0.0049693147,-0.010743873,-0.93016857,-0.005235135,-0.9072612,624045567
-106.21646692777612,39.96121174226074,2396.9177,0.0,0.0,0.0,39.961203484668,-106.21645906962873,0.0091264155,0.0013769947,0.0023790128,-0.016613476,-0.015973294,-1.0093296,1.0095927,0.0,-0.0,0.9349343585726718,-0.9766883117527564,-136.93439411464084,223.0656058853592,-113.28161222594002,45.11214696295525,-2.6379666893305456,10.25371011250598,1.3503625507500192,-0.0313521657219282,130.27467374814785,0.36694366,-0.004933568,-0.0107172225,-0.9301684,-0.0052026864,-0.90725386,624199157
-106.21646691369988,39.96121173983579,2396.8943,0.0,0.0,0.0,39.961203484668,-106.21645906962873,0.009160664,0.0010313375,0.021226158,-0.016289715,-0.014809231,-1.0126064,1.0128456,0.0,-0.0,0.936268171547684,-0.9744491140418822,-136.93224799936897,223.06775200063103,-113.14189390136929,45.11934119702116,-2.645513980494804,10.261004744340251,1.3474544110468447,-0.0301030743937294,130.27248718970728,0.36696112,-0.0049109193,-0.01072097,-0.93016154,-0.005182329,-0.9072462,624351653
-106.21646690185489,39.9612117377439,2396.8867,0.0,0.0,0.0,39.961203484668,-106.21645906962873,0.009889117,0.0004991619,0.025676286,-0.01526697,-0.0146719,-1.0125242,1.0127456,0.0,-0.0,0.9377528297672152,-0.974423236941114,-136.93276048352075,223.06723951647925,-113.8294436573596,45.12602841384663,-2.655734165762175,10.264979111311783,1.3486825876705304,-0.0275236933560012,130.26963172629496,0.36695686,-0.0049060006,-0.010732916,-0.93016315,-0.0051666773,-0.9072357,624508077
-106.21646688982604,39.96121173645957,2396.8735,0.0,0.0,0.0,39.961203484668,-106.21645906962873,0.0095927175,-0.00047290046,0.0344137,-0.015013214,-0.01578589,-1.0117882,1.0120227,0.0,-0.0,0.8679639016332957,-0.9991308856753198,-136.93263985237547,223.06736014762453,-114.05571280867234,45.13578126986618,-2.67204676889765,10.27046943952956,1.3539537766873206,-0.0273610742315946,130.26722888093474,0.36696216,-0.0053301114,-0.010245582,-0.93016416,-0.005184953,-0.90722644,624667897
-106.21646689068652,39.96121173905994,2396.8933,0.0,0.0,0.0,39.961203484668,-106.21645906962873,0.008602734,-0.00056639477,0.015660372,-0.015590776,-0.016694404,-1.0111742,1.0114322,0.0,-0.0,0.8674042074986819,-1.003421000965012,-136.9344436758308,223.0655563241692,-113.8297014930948,45.14138984043053,-2.688456486436627,10.27433979596223,1.3563535036181151,-0.0283840255342796,130.26718189871775,0.3669472,-0.0053668893,-0.010254693,-0.93016976,-0.0052018617,-0.9072259,624820239
-106.21646689156027,39.96121174144017,2396.8916,0.0,0.0,0.0,39.961203484668,-106.21645906962873,0.008604725,-0.00025198562,0.016845465,-0.017327836,-0.015229152,-1.0117083,1.0119712,0.0,-0.0,0.8644680012920467,-1.0035746730116886,-136.9364373778679,223.0635626221321,-113.04006345168098,45.14434937820611,-2.701414204650041,10.276758043765232,1.3542865025989723,-0.0308270218225195,130.2687326956871,0.36693132,-0.0053777196,-0.010231259,-0.93017626,-0.005213475,-0.90723175,624983215
-106.21646689234392,39.96121174344529,2396.8752,0.0,0.0,0.0,39.961203484668,-106.21645906962873,-0.015405636,0.015135024,0.02982071,-0.016867336,-0.015095736,-1.0135089,1.0137616,0.0,-0.0,0.8634650015866705,-1.003242097081998,-136.93699495341653,223.06300504658347,-113.70976493764812,45.14792183551664,-2.7090951540211337,10.28077620678008,1.3524807330935409,-0.0321557888145614,130.2674382753264,0.36692694,-0.005378282,-0.010222027,-0.9301781,-0.005217489,-0.90722704,625136659
-106.21646689331509,39.96121174574796,2396.8574,0.0,0.0,0.0,39.961203484668,-106.21645906962873,-0.015668197,0.014831228,0.040939182,-0.016707754,-0.014654881,-1.0117378,1.0119818,0.0,-0.0,0.8658804341378683,-1.001829603376684,-136.93712705184012,223.06287294815988,-113.81429944633668,45.15648355970824,-2.718683142844873,10.285907893213766,1.3498940742165724,-0.0295912319829802,130.26652985484213,0.3669257,-0.0053590927,-0.010237103,-0.93017846,-0.005187778,-0.90722406,625289530
-106.21646689438592,39.96121174797246,2396.843,0.0,0.0,0.0,39.961203484668,-106.21645906962873,-0.016039765,0.014392093,0.048443325,-0.015196154,-0.016360387,-1.0138639,1.0141097,0.0,-0.0,0.8694943651885635,-1.000409022202583,-136.9384543887397,223.0615456112603,-113.13568417721824,45.16588029467867,-2.7287953177227338,10.289607921459467,1.352840754183093,-0.0272419379430078,130.26624548414924,0.36691475,-0.0053361035,-0.010261827,-0.9301827,-0.005180017,-0.90722287,625452161
-106.21646689621406,39.96121175042571,2396.8315,0.0,0.0,0.0,39.961203484668,-106.21645906962873,-0.016787957,0.014461618,0.055884924,-0.016259586,-0.018388646,-1.0126115,1.0129089,0.0,-0.0,0.8706125963953296,-0.9977413799485972,-136.93863921252324,223.0613607874768,-113.68287991950132,45.17259445231956,-2.7365951603793293,10.293683525256574,1.3511010455907555,-0.0215002078310223,130.26470281033056,0.36691335,-0.0053108847,-0.010262353,-0.93018335,-0.005128319,-0.9072177,625605400
-106.21646686577832,39.96121173497845,2396.8472,0.0,0.0,0.0,39.961203484668,-106.21645906962873,-0.017889032,0.014430575,0.038155396,-0.015410006,-0.016827475,-1.0126128,1.0128698,0.0,-0.0,0.9508278307102505,-1.020376717978141,-136.93659719535412,223.06340280464588,-113.71615688008434,45.17592490980471,-2.749081147634064,10.299320730187622,1.3507085881217002,-0.022309720518532,130.26407267396092,0.36692005,-0.0052374974,-0.010986023,-0.93017286,-0.005133346,-0.9072153,625757710
-106.2164668355638,39.96121171933169,2396.8433,0.0,0.0,0.0,39.961203484668,-106.21645906962873,-0.018178957,0.013758607,0.037690826,-0.016157124,-0.015428553,-1.0101144,1.0103614,0.0,-0.0,0.9474602264599644,-1.02296331270496,-136.93621720788022,223.06378279211972,-113.80539302669054,45.17856874434668,-2.763745197856855,10.304623178557874,1.349247403034515,-0.0255877334752724,130.2621912968957,0.36692324,-0.005269244,-0.010966988,-0.93017167,-0.00515411,-0.9072084,625921155
-106.21646680994353,39.96121170585052,2396.852,0.0,0.0,0.0,39.961203484668,-106.21645906962873,-0.018327666,0.013190677,0.029229425,-0.016683592,-0.015160042,-1.0105077,1.0107591,0.0,-0.0,0.9484176215655672,-1.024691973554389,-136.93529943283383,223.06470056716617,-113.836385052247,45.18421393840393,-2.7757945881953163,10.309784454001116,1.3506673947268395,-0.027278496638329,130.25916189075835,0.36693045,-0.0052801208,-0.010980337,-0.9301686,-0.0051729865,-0.90719706,626074149
-106.21646673064198,39.96121168442625,2396.8293,0.0,0.0,0.0,39.961203484668,-106.21645906962873,-0.010114383,-0.018994093,0.030235356,-0.017467018,-0.016280657,-1.0113133,1.0115952,0.0,-0.0,0.9498350090740848,-1.0248983105561904,-136.93609031433138,223.06390968566865,-116.29632196774456,45.19167745650421,-2.7867899189179384,10.314827010670369,1.3507975026185988,-0.0270002249402892,130.25805050317547,0.36692384,-0.005277332,-0.010992466,-0.9301711,-0.0051713637,-0.907193,626226600
-106.21646670205428,39.96121166816018,2396.8362,0.0,0.0,0.0,39.961203484668,-106.21645906962873,-0.010356485,-0.019355947,0.022577556,-0.016023671,-0.016889492,-1.0103782,1.0106465,0.0,-0.0,0.9507122833782048,-1.0240778279166227,-136.9375908165841,223.0624091834159,-114.6383726226834,45.19855286664159,-2.797110210378796,10.31858890346322,1.3508974035129897,-0.0237148602164398,130.25739405300027,0.36691168,-0.005268005,-0.01099689,-0.9301759,-0.0051457817,-0.90719074,626389703
-106.21646667767088,39.96121165413119,2396.823,0.0,0.0,0.0,39.961203484668,-106.21645906962873,-0.01083115,-0.019821668,0.03398626,-0.015816526,-0.015762066,-1.0093054,1.0095524,0.0,-0.0,0.949916595710399,-1.0218616405569614,-136.93813316252042,223.0618668374796,-114.26726091163933,45.203339235567,-2.804456705120734,10.322047495937197,1.3478251480170371,-0.0225793332942632,130.257337015899,0.36690754,-0.005252617,-0.010983311,-0.93017775,-0.005125522,-0.90719086,626542895
-106.21646667455474,39.96121165052429,2396.8342,0.0,0.0,0.0,39.961203484668,-106.21645906962873,-0.011224823,-0.019825969,0.02271045,-0.016198646,-0.015390969,-1.010714,1.010961,0.0,-0.0,0.8715570389839551,-0.9816612041290672,-136.940280972343,223.059719027657,-113.42867314837318,45.20739520547328,-2.814914302418194,10.327381026191032,1.3460464226815918,-0.023144100987188,130.25650864636978,0.36690146,-0.0051774755,-0.010218458,-0.9301894,-0.0051235417,-0.907188,626695824
-106.21646667101577,39.96121164619146,2396.8337,0.0,0.0,0.0,39.961203484668,-106.21645906962873,-0.011873278,-0.020115659,0.02258199,-0.015020585,-0.015350041,-1.0112653,1.0114933,0.0,-0.0,0.8726423367786759,-0.9821771798822112,-136.94102633685932,223.05897366314068,-113.79289759753024,45.213649039120405,-2.826266471331016,10.3321978731104,1.3453869906331888,-0.0230016105143987,130.25475428924983,0.36689517,-0.005178256,-0.010228885,-0.93019164,-0.0051201554,-0.90718156,626858316
-106.21646666812433,39.96121164231968,2396.8154,0.0,0.0,0.0,39.961203484668,-106.21645906962873,-0.012197434,-0.020614836,0.037994966,-0.016147071,-0.014371163,-1.0112307,1.0114617,0.0,-0.0,0.872332385847512,-0.9861237477964075,-136.93981668200513,223.06018331799487,-114.1118765762738,45.21935844879006,-2.839438709415296,10.337783531362248,1.3471497729785509,-0.0240026761560553,130.2516241715408,0.36690474,-0.0052111754,-0.010239061,-0.93018764,-0.005134839,-0.9071699,627011655
-106.21646666487462,39.96121163773424,2396.8257,0.0,0.0,0.0,39.961203484668,-106.21645906962873,-0.019132879,0.0053554047,0.026840892,-0.017261524,-0.015640857,-1.0108774,1.0111457,0.0,-0.0,0.869543011023695,-0.9861717368753328,-136.9418580799058,223.0581419200942,-113.4661256439766,45.22252569637028,-2.8522773607740164,10.340882526028905,1.3468235410850464,-0.0264341984996563,130.25148733189624,0.3668884,-0.0052206814,-0.01021648,-0.93019426,-0.0051529035,-0.90716934,627164009
-106.21646666159717,39.96121163311118,2396.8298,0.0,0.0,0.0,39.961203484668,-106.21645906962873,-0.01924875,0.00497482,0.022239354,-0.016161947,-0.015199878,-1.011379,1.0116223,0.0,-0.0,0.8686938945914605,-0.9862934013062642,-136.94268881982197,223.05731118017803,-113.348980498361,45.227682613959175,-2.863570769154555,10.345949035740558,1.344328026257111,-0.0267625240005513,130.2511030447888,0.36688173,-0.0052244626,-0.010209939,-0.93019694,-0.0051463787,-0.9071681,627327099
-106.2164666588775,39.96121162912699,2396.8364,0.0,0.0,0.0,39.961203484668,-106.21645906962873,-0.019576393,0.0047651567,0.01689161,-0.016240604,-0.014695431,-1.0112697,1.0115068,0.0,-0.0,0.8684365883425231,-0.9867656183553422,-136.9426012805486,223.0573987194514,-114.38456950832736,45.23275029985959,-2.872676383883024,10.350243776726629,1.3435581766403917,-0.0265888813515465,130.2487938035597,0.3668824,-0.005229112,-0.010209367,-0.93019664,-0.0051423907,-0.9071597,627480406
-106.21646663388287,39.961211614684935,2396.8333,0.0,0.0,0.0,39.961203484668,-106.21645906962873,-0.019840261,0.004325669,0.019152759,-0.016243253,-0.015464944,-1.0117056,1.0119542,0.0,-0.0,0.8981102341408178,-1.0063695376437691,-136.9442548125874,223.0557451874126,-114.9080248767034,45.2402072110626,-2.882755729799291,10.353619479335675,1.3430983796370342,-0.0248758750152226,130.2483462069046,0.36686435,-0.005293363,-0.010512917,-0.9302,-0.005127183,-0.9071582,627633287
-106.21646660816992,39.9612115996521,2396.8481,0.0,0.0,0.0,39.961203484668,-106.21645906962873,-0.019942353,0.003931051,0.006859199,-0.016276648,-0.015624735,-1.0135243,1.0137753,0.0,-0.0,0.897740649755229,-1.0044787118278973,-136.94537113891175,223.05462886108825,-113.63089849720808,45.24533774759263,-2.8908883249424293,10.356296721823568,1.3413661630991367,-0.0230625513330089,130.24933557790587,0.36685553,-0.0052792993,-0.010503813,-0.9302037,-0.005106379,-0.9071621,627789333
-106.21646657830364,39.9612115819525,2396.8591,0.0,0.0,0.0,39.961203484668,-106.21645906962873,-0.020541329,0.0033933176,-0.0032149558,-0.01545882,-0.015757246,-1.0143155,1.0145556,0.0,-0.0,0.8978059640635595,-1.006025924319021,-136.94708442270502,223.05291557729493,-113.9511211734135,45.25164975620291,-2.903070633296258,10.360114059808168,1.3404765121572575,-0.0223174241322471,130.24901577876508,0.3668415,-0.0052918065,-0.010509217,-0.9302091,-0.005097244,-0.907161,627949144
-106.21646646989856,39.96121154453508,2396.8994,0.0,0.0,0.0,39.961203484668,-106.21645906962873,-0.023527216,-1.0329186e-05,-0.018487971,-0.016651299,-0.015655626,-1.0123583,1.0126163,0.0,-0.0,0.8953126080982818,-1.006886432633479,-136.94818236485386,223.0518176351461,-113.95618176730125,45.2560101611364,-2.916368898896528,10.364073283782032,1.3417090955957274,-0.0246436337257427,130.2494231229188,0.36683276,-0.0053068767,-0.010491682,-0.9302127,-0.005120146,-0.9071623,628102887
-106.21646643894384,39.9612115260847,2396.9111,0.0,0.0,0.0,39.961203484668,-106.21645906962873,-0.023723388,-0.00032571517,-0.024212126,-0.017070957,-0.015662154,-1.0095116,1.0097774,0.0,-0.0,0.8957417899722547,-1.0081726665863304,-136.95028026136944,223.04971973863056,-114.07942459956314,45.26176458447628,-2.929323790589044,10.367028907363382,1.3406611013242815,-0.0249943415146651,130.24858058050305,0.36681554,-0.0053161364,-0.010499186,-0.9302193,-0.0051191533,-0.9071592,628264448
-106.2164664124664,39.96121151025373,2396.9146,0.0,0.0,0.0,39.961203484668,-106.21645906962873,-0.023928858,-0.00035257218,-0.024126263,-0.01655469,-0.015600399,-1.0123382,1.0125937,0.0,-0.0,0.8958393558630251,-1.0071306682314904,-136.95114215992706,223.0488578400729,-113.086668776476,45.267047636922406,-2.937544275981756,10.370143377833092,1.339598206303633,-0.023303831791278,130.2484178777122,0.36680862,-0.0053074444,-0.010496602,-0.9302221,-0.005101884,-0.90715885,628417901
-106.21646639105929,39.96121149016439,2396.8967,0.0,0.0,0.0,39.961203484668,-106.21645906962873,-0.023846291,-0.000847036,-0.0073261536,-0.016216904,-0.015829667,-1.0116264,1.0118802,0.0,-0.0,0.965403926339484,-0.9626757961357792,-136.9491753412026,223.0508246587974,-114.381749567454,45.27293603402613,-2.946159170829239,10.377217167912267,1.338264500453299,-0.0230920422826158,130.24586638481424,0.36682206,-0.0047236304,-0.010919058,-0.93021506,-0.0050955457,-0.9071496,628570247
-106.21646636858814,39.9612114677283,2396.8916,0.0,0.0,0.0,39.961203484668,-106.21645906962873,-0.023482239,-0.0013782256,-0.003078744,-0.015172277,-0.01605356,-1.0114905,1.0117316,0.0,-0.0,0.9676208921127766,-0.9595769171966964,-136.94863799615695,223.05136200384305,-113.922137612076,45.28133725848992,-2.9545290844952405,10.382891523805103,1.3354936069250465,-0.0170805956856188,130.24352963956514,0.36682653,-0.0046913237,-0.010927156,-0.9302134,-0.0050379997,-0.90714157,628733327
-106.21646634949047,39.96121144845408,2396.8884,0.0,0.0,0.0,39.961203484668,-106.21645906962873,-0.02371895,-0.0018979213,-6.53023e-06,-0.015378352,-0.016674446,-1.0119495,1.0122037,0.0,-0.0,0.966316069427408,-0.9627462403314984,-136.94906213762044,223.0509378623796,-113.73157891238957,45.28599312073252,-2.9664513421020247,10.387061455912834,1.3362566139825274,-0.018894678758812,130.2425067136056,0.36682287,-0.004721271,-0.010926692,-0.93021464,-0.0050552553,-0.9071377,628886640
-106.21646632738542,39.96121142582329,2396.8757,0.0,0.0,0.0,39.961203484668,-106.21645906962873,0.01154073,-0.01573058,0.010153133,-0.015806202,-0.016079443,-1.0136418,1.0138925,0.0,-0.0,0.9657984664268442,-0.9655170292053084,-136.94954990695746,223.0504500930425,-114.05859537440875,45.29147526881513,-2.982144236528141,10.391599171709435,1.338115619977051,-0.0199339429738244,130.24299956378678,0.36681873,-0.0047454666,-0.01093134,-0.93021613,-0.0050702617,-0.90713924,629039338
-106.21646630860876,39.96121140638221,2396.8787,0.0,0.0,0.0,39.961203484668,-106.21645906962873,0.0114895515,-0.0160039,0.0071930746,-0.01672257,-0.01582159,-1.0141686,1.0144299,0.0,-0.0,0.9647725143888076,-0.9698202748403632,-136.95201912435698,223.04798087564305,-114.292624311045,45.29511803471263,-2.99472484061141,10.393690149120893,1.3378848415259692,-0.0218857582194711,130.24255588065458,0.36679834,-0.0047839205,-0.010936684,-0.9302239,-0.0050849062,-0.9071376,629195589
-106.2164662868354,39.96121138377819,2396.8547,0.0,0.0,0.0,39.961203484668,-106.21645906962873,0.011821118,-0.016389988,0.024624962,-0.017810626,-0.014869827,-1.0125864,1.0128522,0.0,-0.0,0.9650589437321456,-0.9710883135630618,-136.95361839286394,223.04638160713608,-114.2047568690528,45.30179766795942,-3.0089516803164984,10.396971192588929,1.3406268196768294,-0.0237208668818975,130.2427857958365,0.36678523,-0.0047934493,-0.010943001,-0.93022895,-0.0051094783,-0.90713805,629355406
-106.21646628693055,39.96121139475289,2396.8523,0.0,0.0,0.0,39.961203484668,-106.21645906962873,0.012033451,-0.016344683,0.024095709,-0.01607145,-0.016537393,-1.0114574,1.0117203,0.0,-0.0,0.9011432147292388,-0.959745194752714,-136.95648109990495,223.04351890009505,-114.3849951719085,45.30925711893644,-3.018795184145701,10.40035236530034,1.3407405357348188,-0.0235931362714615,130.24344975310098,0.3667691,-0.0049062823,-0.010387745,-0.9302411,-0.0051088235,-0.9071405,629507703
-106.2164662877074,39.96121140856881,2396.8684,0.0,0.0,0.0,39.961203484668,-106.21645906962873,0.011537483,-0.016164564,0.008181042,-0.016798735,-0.016374085,-1.0124928,1.0127645,0.0,-0.0,0.901694118034052,-0.9567408505936346,-136.9578283122283,223.0421716877717,-114.3725009388316,45.31594155597668,-3.026917041521556,10.404103601350675,1.339084185576686,-0.0195392644486298,130.24262416114573,0.36675838,-0.004880252,-0.010382543,-0.9302455,-0.0050707273,-0.9071378,629671015
-106.21646628833868,39.96121142037787,2396.8728,0.0,0.0,0.0,39.961203484668,-106.21645906962873,0.011306856,-0.016031805,0.004262464,-0.016445287,-0.016458837,-1.0124307,1.0126979,0.0,-0.0,0.901694073556808,-0.9537852239858028,-136.95870881667787,223.04129118332213,-113.30637322552369,45.32129125751089,-3.0324549971832355,10.407633795358915,1.3350844515906035,-0.0152547256427133,130.2421667067026,0.36675146,-0.0048563387,-0.010373046,-0.93024844,-0.0050221686,-0.9071367,629824154
-106.21646628905354,39.961211434076446,2396.877,0.0,0.0,0.0,39.961203484668,-106.21645906962873,0.0070722788,0.0033988517,-0.000495231,-0.014228484,-0.015452727,-1.0134454,1.013663,0.0,-0.0,0.9045049947349728,-0.9510184482748564,-136.96121659364923,223.0387834063508,-113.73964031843602,45.33052989543512,-3.04283705492591,10.410039408626828,1.3352664790183026,-0.0132358709175829,130.2421692879134,0.3667311,-0.004825106,-0.010386903,-0.9302565,-0.005006855,-0.90713674,629977150
-106.2164663401033,39.9612115529096,2396.8843,0.0,0.0,0.0,39.961203484668,-106.21645906962873,0.00958045,0.005220223,-0.0065648668,-0.015505791,-0.01582847,-1.0112529,1.0114956,0.0,-0.0,0.9055851972992331,-0.9507920409848248,-136.95988988818718,223.0401101118128,-113.41006334903298,45.33686273222111,-3.0520773103791883,10.415876422614955,1.3346561068155869,-0.0095489606292859,130.24076136337328,0.36674178,-0.00481969,-0.010395003,-0.9302522,-0.004975557,-0.90713185,630133071
-106.21646634014937,39.96121156723935,2396.885,0.0,0.0,0.0,39.961203484668,-106.21645906962873,0.009133806,0.0051589594,-0.00665949,-0.01585652,-0.016680375,-1.0130231,1.0132846,0.0,-0.0,0.9020760041552288,-0.954121004635728,-136.9596873500505,223.0403126499495,-114.3835855463966,45.33992912801909,-3.0673601908352723,10.421442034722658,1.334250112591979,-0.0136229447093287,130.2388724474157,0.36674353,-0.004857929,-0.01037718,-0.9302516,-0.0050064903,-0.90712476,630292893
-106.21646631664284,39.96121157747199,2396.8767,0.0,0.0,0.0,39.961203484668,-106.21645906962873,0.008796439,0.0052923956,0.000324363,-0.017532082,-0.01621954,-1.0092152,1.0094978,0.0,-0.0,0.8830289682434485,-0.9742308456373546,-136.96160638043364,223.0383936195664,-114.1145767274005,45.34390116595224,-3.081754463676332,10.424136268883265,1.3348570233589163,-0.0148544215439675,130.2403182190083,0.36672792,-0.0050823316,-0.01028684,-0.93025756,-0.0050183344,-0.90712994,630445342
-106.2164662871252,39.96121158615882,2396.8706,0.0,0.0,0.0,39.961203484668,-106.21645906962873,0.008667018,0.0055975607,0.0065261563,-0.016854744,-0.016284736,-1.0101036,1.0103754,0.0,-0.0,0.8823375636052924,-0.974656786968593,-136.9600506795624,223.0399493204376,-114.48684047509803,45.34841794495846,-3.093506975042124,10.430980303527056,1.33458405603951,-0.0168958439806294,130.23779780215978,0.36674052,-0.005087864,-0.010282659,-0.93025255,-0.0050337235,-0.90712065,630608281
-106.2164662617418,39.96121159356111,2396.8503,0.0,0.0,0.0,39.961203484668,-106.21645906962873,0.008366166,0.005731123,0.022994027,-0.016933741,-0.015762527,-1.012458,1.0127223,0.0,-0.0,0.8827404278617019,-0.9701924573934502,-136.95921767872812,223.04078232127188,-113.4212567009456,45.35449744622908,-3.1004912731657286,10.436013243015813,1.3321897180749185,-0.0138483794072028,130.234541845177,0.3667477,-0.0050502573,-0.010271679,-0.9302501,-0.005001107,-0.907109,630761658
-106.216466232102,39.96121160219502,2396.8464,0.0,0.0,0.0,39.961203484668,-106.21645906962873,-0.0042325133,0.014173167,0.02371336,-0.016543396,-0.015445366,-1.0118448,1.0120978,0.0,-0.0,0.8837409277869326,-0.9657513293485126,-136.9587522262205,223.0412477737795,-113.8602415842498,45.36140889733897,-3.1058721411512367,10.44179983060862,1.3289763574723472,-0.0107046362777246,130.23385194204153,0.36675173,-0.0050109606,-0.010265606,-0.93024874,-0.004964486,-0.90710694,630914104
-106.21646620246077,39.9612116108074,2396.854,0.0,0.0,0.0,39.961203484668,-106.21645906962873,-0.0040424927,0.014171022,0.016114555,-0.01681131,-0.01579802,-1.0104247,1.0106881,0.0,-0.0,0.883595897179025,-0.9607237779888764,-136.95906886833544,223.04093113166456,-113.52219805605218,45.36710685219318,-3.113149979103595,10.446516238574976,1.325696155667975,-0.0076179313032452,130.23106362868407,0.36674964,-0.0049706395,-0.010248325,-0.93025,-0.004928263,-0.9070971,631077381
-106.21646617703476,39.9612116181325,2396.853,0.0,0.0,0.0,39.961203484668,-106.21645906962873,-0.004453526,0.014142094,0.017489307,-0.015085347,-0.017482331,-1.0107516,1.0110154,0.0,-0.0,0.880603145906905,-0.9596546398245356,-136.96118388006497,223.03881611993503,-113.87190747248566,45.369973529655645,-3.1212150102000025,10.448385819060707,1.321557536174691,-0.0076273001869956,130.23228372668174,0.36673284,-0.0049717305,-0.010220517,-0.9302569,-0.0049130297,-0.9071019,631230408
-106.21646615528708,39.96121160672662,2396.8462,0.0,0.0,0.0,39.961203484668,-106.21645906962873,-0.005146968,0.013798291,0.022676097,-0.015378222,-0.015288274,-1.0097586,1.0099914,0.0,-0.0,0.9336368933866604,-0.9735521292460406,-136.95708937486515,223.04291062513485,-113.57245922843067,45.37415315543877,-3.132631301721644,10.456868132663308,1.3212831905711144,-0.0082187947400063,130.2295635937341,0.36675984,-0.0049143857,-0.010695675,-0.9302412,-0.004916952,-0.90709203,631382707
-106.21646613208064,39.96121159188438,2396.8496,0.0,0.0,0.0,39.961203484668,-106.21645906962873,-0.0050745364,0.012852698,0.019126099,-0.015713217,-0.01506462,-1.0113796,1.0116138,0.0,-0.0,0.930407697044725,-0.9756013110834918,-136.96040674702283,223.0395932529772,-113.7029744640342,45.37704298889982,-3.146146823629819,10.458748798851962,1.3190576131528362,-0.0105222562385403,130.2289098189167,0.36673304,-0.0049416684,-0.010675878,-0.9302519,-0.004927073,-0.9070897,631546146
-106.2164661123929,39.96121157914114,2396.843,0.0,0.0,0.0,39.961203484668,-106.21645906962873,-0.005055072,0.012562191,0.024899954,-0.016592922,-0.016482085,-1.0102099,1.0104805,0.0,-0.0,0.9300217352025316,-0.9759920846825416,-136.95862608581348,223.0413739141865,-114.52679224447678,45.38184348690102,-3.156975449694541,10.464889290959382,1.3183812062656994,-0.0113181997766199,130.22652096554944,0.36674747,-0.004945911,-0.010674072,-0.9302462,-0.0049311067,-0.90708095,631699157
-106.21646608946229,39.96121156422301,2396.852,0.0,0.0,0.0,39.961203484668,-106.21645906962873,0.0021454,-0.007294726,0.015966777,-0.016473625,-0.01563115,-1.011346,1.011601,0.0,-0.0,0.9303267110705664,-0.974989195859254,-136.96030916245667,223.03969083754333,-114.7508212463964,45.387652532676114,-3.16663187642787,10.468524072212828,1.3178547752287133,-0.0104135516332782,130.22640047088527,0.36673388,-0.00493695,-0.010673266,-0.9302516,-0.0049220235,-0.9070806,631851590
-106.21646606661476,39.96121154933039,2396.8555,0.0,0.0,0.0,39.961203484668,-106.21645906962873,0.0023437785,-0.00782313,0.012855543,-0.016247792,-0.014909902,-1.0106821,1.0109227,0.0,-0.0,0.932653590849402,-0.9740969599307278,-136.95663415873992,223.04336584126008,-114.05698462071614,45.39620308346845,-3.1771595116519635,10.476855169521263,1.318217336748155,-0.0087131120500409,130.22195485320623,0.3667636,-0.004921914,-0.010689457,-0.9302398,-0.004910298,-0.9070643,632014917
-106.21646596987574,39.96121153353061,2396.8662,0.0,0.0,0.0,39.961203484668,-106.21645906962873,0.0026177438,-0.011634741,0.00498287,-0.0151215475,-0.01599684,-1.0098348,1.0100746,0.0,-0.0,0.9338040506903842,-0.9745488362180048,-136.95992654939187,223.04007345060813,-114.5329306749282,45.40173476535382,-3.188543375295302,10.47798555877316,1.317736538845595,-0.0068271607814187,130.2235624590929,0.36673665,-0.0049222074,-0.0107001,-0.9302502,-0.004893458,-0.90707034,632167906
-106.21646597005484,39.96121152768872,2396.8845,0.0,0.0,0.0,39.961203484668,-106.21645906962873,0.0023155932,-0.011758108,-0.008970665,-0.016415948,-0.016286863,-1.0110545,1.0113189,0.0,-0.0,0.905983964217724,-0.9633767339279944,-136.9574469078489,223.0425530921511,-113.68565679970264,45.407919891807,-3.1987680886258034,10.485711942923649,1.317100755109286,-0.0076831920319895,130.2211183729266,0.36676046,-0.0049203523,-0.010438621,-0.93024385,-0.004898121,-0.90706134,632320730
-106.21646597080095,39.96121152308629,2396.881,0.0,0.0,0.0,39.961203484668,-106.21645906962873,0.0021254388,-0.011891032,-0.0052711056,-0.015070064,-0.015896505,-1.0114651,1.0117023,0.0,-0.0,0.9078536499609464,-0.9643874614864356,-136.95969783169662,223.04030216830336,-113.55578867233454,45.414559432421285,-3.208639545761776,10.488127201578848,1.3175703115159498,-0.0049876180912897,130.21981191853243,0.36674193,-0.0049227765,-0.010456936,-0.93025094,-0.004878627,-0.9070566,632476834
-106.21646597182362,39.96121151759522,2396.8809,0.0,0.0,0.0,39.961203484668,-106.21645906962873,0.0015634791,-0.012402894,-0.0049409037,-0.015484955,-0.015582834,-1.0119818,1.0122203,0.0,-0.0,0.9097990176888472,-0.9653826073512604,-136.9578122459868,223.0421877540132,-112.86564589782542,45.42274024551504,-3.22218042015374,10.49467554596221,1.3196271034314877,-0.0034403520945072,130.21671306738074,0.36675698,-0.0049244543,-0.010475994,-0.9302448,-0.0048742155,-0.9070452,632636644
-106.21646597303132,39.96121151199205,2396.8757,0.0,0.0,0.0,39.961203484668,-106.21645906962873,-0.00073430606,-0.008342344,0.0003987695,-0.015094614,-0.01517336,-1.0098387,1.0100656,0.0,-0.0,0.9097700351767072,-0.969488984606,-136.9618270566876,223.0381729433124,-114.39894617336712,45.42840555511184,-3.2376812261974863,10.495833828233067,1.3221277024302287,-0.0053556387911144,130.2187561087973,0.36672404,-0.004958249,-0.010488728,-0.9302575,-0.004898374,-0.90705234,632789096
-106.21646597441152,39.96121150626883,2396.8718,0.0,0.0,0.0,39.961203484668,-106.21645906962873,-0.001104777,-0.008577471,0.00462861,-0.016967542,-0.016739203,-1.0113177,1.0115986,0.0,-0.0,0.910207305701782,-0.9717413428948396,-136.96094909844783,223.03905090155217,-113.56676703303144,45.435117672038345,-3.250890676789544,10.501682232040316,1.3240954243888552,-0.007023936790681,130.21722392945094,0.36673093,-0.0049750535,-0.010499524,-0.9302546,-0.004918946,-0.9070465,632952283
-106.21646597555008,39.96121150130574,2396.8633,0.0,0.0,0.0,39.961203484668,-106.21645906962873,-0.0012991756,-0.008284863,0.011487253,-0.016976707,-0.016368577,-1.0122805,1.0125551,0.0,-0.0,0.908544710781167,-0.9689389776341204,-136.96284465581897,223.03715534418103,-114.35392621184556,45.43866849731222,-3.2584911427684973,10.504319297297918,1.3203334180791864,-0.0053880255203102,130.2178790169824,0.36671588,-0.004957801,-0.010476977,-0.9302608,-0.00489212,-0.90704936,633105403
-106.21646596878638,39.96121150085192,2396.864,0.0,0.0,0.0,39.961203484668,-106.21645906962873,-0.0012905614,-0.008419703,0.010249179,-0.016720867,-0.014359762,-1.0135648,1.0138044,0.0,-0.0,0.890975563968782,-0.962878822272267,-136.9619330657154,223.0380669342846,-113.5381731466209,45.44574523478994,-3.266163412023849,10.510237359698811,1.3200843286244095,-0.0036989252754317,130.2161644232966,0.36672553,-0.004964765,-0.010315003,-0.9302588,-0.0048779915,-0.9070431,633257798
-106.21646596041384,39.96121150038058,2396.8518,0.0,0.0,0.0,39.961203484668,-106.21645906962873,-0.0014582825,-0.008744262,0.02072509,-0.016391754,-0.014739909,-1.0117829,1.012023,0.0,-0.0,0.8906131749570079,-0.9621809599642808,-136.9635065745624,223.0364934254376,-113.0732020261403,45.45089349333677,-3.274943472246241,10.51309757850766,1.317460721087835,-0.0021585514013991,130.2148166150122,0.36671284,-0.004960402,-0.0103097595,-0.9302639,-0.004856285,-0.90703845,633414333
-106.2164659507882,39.96121149982503,2396.8296,0.0,0.0,0.0,39.961203484668,-106.21645906962873,-0.0015488346,-0.009092914,0.03703797,-0.015083279,-0.015383809,-1.0109931,1.0112227,0.0,-0.0,0.8915195081077154,-0.9647366935518832,-136.9625323210136,223.0374676789864,-114.49604409614184,45.45777353340981,-3.2876664971389347,10.518367225824356,1.3179570977847637,-0.0021164760920537,130.21229855477526,0.3667204,-0.004978161,-0.010325338,-0.9302606,-0.0048580044,-0.90702915,633574146
-106.21646594137133,39.96121149912663,2396.8386,0.0,0.0,0.0,39.961203484668,-106.21645906962873,-0.008080996,-0.00083901314,0.02556994,-0.014817132,-0.017392257,-1.0130166,1.0132742,0.0,-0.0,0.889804363192794,-0.9669971180357922,-136.96294143731762,223.0370585626824,-114.1010811453343,45.46198321151135,-3.302009095919266,10.52356351977516,1.318453294875337,-0.0039956674648524,130.2117788946249,0.3667171,-0.0050020376,-0.010318631,-0.9302619,-0.0048747486,-0.9070271,633726628
-106.216465931944,39.961211498143456,2396.8506,0.0,0.0,0.0,39.961203484668,-106.21645906962873,-0.00896493,-0.00091849593,0.0147606805,-0.01690039,-0.016405324,-1.0127106,1.0129844,0.0,-0.0,0.8841788053422941,-0.9685544261586972,-136.96090268329482,223.0390973167052,-113.87691513112884,45.46244540464377,-3.3144761819935185,10.530481351150849,1.316064014798532,-0.0079740619584618,130.20927612230403,0.36673397,-0.0050325072,-0.010278038,-0.9302555,-0.0048976894,-0.907018,633889571
-106.2164659238022,39.96121149721824,2396.8667,0.0,0.0,0.0,39.961203484668,-106.21645906962873,-0.008977114,-0.0008610664,-2.2212742e-05,-0.016734224,-0.015042038,-1.0120184,1.0122685,0.0,-0.0,0.881781325972389,-0.964915913767523,-136.96124662509988,223.03875337490007,-113.66759552273022,45.4646558064624,-3.3220963516500093,10.535111516777867,1.3103996568733745,-0.0075883257567048,130.20762215521353,0.36673176,-0.005010675,-0.010246917,-0.93025684,-0.0048739784,-0.90701246,634042891
-106.21646604084032,39.96121144786692,2396.8708,0.0,0.0,0.0,39.961203484668,-106.21645906962873,-0.010261421,0.0017833889,-0.0031846324,-0.015831511,-0.013863928,-1.0113564,1.0115753,0.0,-0.0,0.9093484903601184,-0.969988245137152,-136.95922738675063,223.04077261324937,-114.39409761911205,45.47175844210254,-3.3319432832943563,10.54111660068822,1.3090579274111354,-0.0058540387561665,130.20492253049193,0.3667451,-0.0049634143,-0.010487016,-0.93024915,-0.004855566,-0.9070027,634195322
-106.21646604253196,39.96121143025103,2396.8635,0.0,0.0,0.0,39.961203484668,-106.21645906962873,-0.010444595,0.00074331346,0.0035762498,-0.015771946,-0.014576894,-1.0109521,1.0111802,0.0,-0.0,0.9150626612381944,-0.9675646289368004,-136.95934498294002,223.04065501706,-114.02325031153045,45.484086209933125,-3.3412444036417583,10.545099913015784,1.310923499292568,-0.0014417824987944,130.20389452757604,0.3667438,-0.004925457,-0.010525639,-0.9302494,-0.0048275893,-0.90699893,634358611
-106.21646604419074,39.96121141515515,2396.862,0.0,0.0,0.0,39.961203484668,-106.21645906962873,-0.010633642,0.00020465138,0.0051168557,-0.015132241,-0.015599561,-1.0125052,1.0127383,0.0,-0.0,0.9157803803837308,-0.971252770461736,-136.96061314723312,223.03938685276688,-113.80943945772088,45.490321730065816,-3.3542799134314465,10.548447971919792,1.3138326872771513,-0.0017018360092563,130.2028098673737,0.3667331,-0.004953216,-0.010543214,-0.93025327,-0.0048404336,-0.90699464,634511660
-106.2164660462832,39.96121139738364,2396.8616,0.0,0.0,0.0,39.961203484668,-106.21645906962873,-0.0064340243,-0.0077137337,0.0055921143,-0.014665527,-0.016899483,-1.0108818,1.0111294,0.0,-0.0,0.9126900815214446,-0.9745915500861227,-136.95757703103217,223.04242296896783,-113.6853987783067,45.49332408602176,-3.369001576996857,10.55633772691872,1.314200132336712,-0.0023419001830313,130.20059444607423,0.36675778,-0.0049899337,-0.010528946,-0.93024355,-0.0048470506,-0.9069864,634664864
-106.2164660481644,39.96121138194792,2396.837,0.0,0.0,0.0,39.961203484668,-106.21645906962873,-0.007085448,-0.008169055,0.026153617,-0.014546894,-0.015480465,-1.0114932,1.0117162,0.0,-0.0,0.910131871789042,-0.979072746148506,-136.95838309097573,223.04161690902427,-113.68094437922966,45.495793804477,-3.3832354440002974,10.560381977908818,1.3149396120128032,-0.0083123316440903,130.19831542351423,0.36675102,-0.005034577,-0.010522487,-0.930246,-0.0048972294,-0.9069778,634820579
-106.21646605067792,39.96121136378212,2396.844,0.0,0.0,0.0,39.961203484668,-106.21645906962873,-0.0073457025,-0.008801772,0.018219853,-0.016115496,-0.014222602,-1.0105151,1.0107436,0.0,-0.0,0.9099954692533072,-0.9877660660028114,-136.9582763164325,223.0417236835675,-113.60336704512356,45.50169737242723,-3.403805109009659,10.565046767976074,1.3206886460936853,-0.0145829775398363,130.19715866311307,0.3667511,-0.0051055755,-0.010549207,-0.9302453,-0.004968088,-0.90697277,634980411
-106.2164660540999,39.9612113570138,2396.8518,0.0,0.0,0.0,39.961203484668,-106.21645906962873,-0.0070173084,-0.009554542,0.011418824,-0.016326029,-0.014720882,-1.0087005,1.00894,0.0,-0.0,0.913022133625036,-0.97478220147194,-136.95909825663986,223.0409017433601,-112.83018553067475,45.51195113051469,-3.4215824107709296,10.56950704441019,1.3243285733012755,-0.0138259881127373,130.19619415313676,0.36674535,-0.0049905586,-0.010532185,-0.9302484,-0.0049755583,-0.9069689,635132691
-106.21646606078887,39.961211352186886,2396.8674,0.0,0.0,0.0,39.961203484668,-106.21645906962873,-0.00714781,-0.00963746,-0.00025592,-0.017107096,-0.017700665,-1.0101184,1.0104183,0.0,-0.0,0.9145691756927712,-0.9784878916960116,-136.9586130230061,223.0413869769939,-112.83333431452527,45.51987484498659,-3.435944952403565,10.574865638850472,1.3319703703291688,-0.0171939028046604,130.19499515498842,0.36674887,-0.0050156424,-0.010556625,-0.93024665,-0.005030402,-0.90696365,635296042
-106.2164660663948,39.96121134797318,2396.8586,0.0,0.0,0.0,39.961203484668,-106.21645906962873,-0.0074807312,-0.009193656,0.008090977,-0.017272009,-0.017112775,-1.0100592,1.0103519,0.0,-0.0,0.9103369413259608,-0.9741603623804468,-136.95874535976372,223.04125464023628,-114.42380133891984,45.52129320534476,-3.4434253278686584,10.579231732662652,1.3253243459183237,-0.0154049787399049,130.193648971487,0.3667485,-0.0049940753,-0.010508413,-0.93024737,-0.0049919463,-0.9069593,635449152
-106.21646607276745,39.96121134299361,2396.8518,0.0,0.0,0.0,39.961203484668,-106.21645906962873,-6.6398643e-06,-0.0051374584,0.014109207,-0.016837679,-0.01663507,-1.0117319,1.0120088,0.0,-0.0,0.9027519540146944,-0.9677449727796102,-136.95934840548898,223.04065159451105,-112.96188621932022,45.51969510259473,-3.44752463545982,10.583443036770555,1.319615212067497,-0.0159727413173816,130.19285607218066,0.36674494,-0.004966334,-0.010426284,-0.93024987,-0.004975534,-0.9069569,635601498
-106.21646607821552,39.96121133869472,2396.848,0.0,0.0,0.0,39.961203484668,-106.21645906962873,-0.0007207433,-0.005644259,0.016672073,-0.015347183,-0.014036504,-1.0129855,1.013199,0.0,-0.0,0.899794892283763,-0.9628467992628086,-136.95939932760783,223.0406006723921,-114.2214610645125,45.52070252247796,-3.452173194376235,10.587882014499524,1.3096660074416422,-0.0159504062177756,130.19179046217653,0.36674523,-0.0049360427,-0.010386601,-0.93025035,-0.004938895,-0.906954,635758097
-106.2164660848818,39.96121133365092,2396.8372,0.0,0.0,0.0,39.961203484668,-106.21645906962873,-0.0006944414,-0.006590591,0.023992019,-0.015778806,-0.014562891,-1.0131212,1.0133488,0.0,-0.0,0.9008966599334456,-0.9595112451069244,-136.95928748906962,223.0407125109304,-113.3061718380632,45.5283590558509,-3.4601457024065554,10.5927104885893,1.3062519457848247,-0.0117888827024836,130.18994027218957,0.36674637,-0.004905427,-0.010384874,-0.9302501,-0.004893579,-0.9069476,635917904
-106.21646598637052,39.96121112668393,2396.799,0.0,0.0,0.0,39.961203484668,-106.21645906962873,0.00010571444,-0.00539165,0.037620343,-0.0151638035,-0.017018287,-1.0123731,1.0126296,0.0,-0.0,0.8750891389029412,-0.9438835036787506,-136.96111014187264,223.03888985812736,-114.42079080178893,45.53693251866298,-3.465834083995821,10.59622815528108,1.3042654242417762,-0.0076477140848722,130.18990959646032,0.36673537,-0.0048613455,-0.010125287,-0.93025756,-0.004853506,-0.9069479,636071243
-106.21646595510572,39.96121107308217,2396.798,0.0,0.0,0.0,39.961203484668,-106.21645906962873,-0.0017562555,-0.00591127,0.036193077,-0.016034039,-0.015858771,-1.0137323,1.0139831,0.0,-0.0,0.874989298036837,-0.9418584899309276,-136.962740723069,223.037259276931,-114.4167810341452,45.54275657961978,-3.4754523972430094,10.599635109006387,1.3034997426639805,-0.0045585381405394,130.18983034505422,0.36672232,-0.00484537,-0.010117927,-0.93026286,-0.00482625,-0.9069478,636233372
-106.21646592831284,39.96121102705603,2396.8054,0.0,0.0,0.0,39.961203484668,-106.21645906962873,-0.0019647225,-0.0059413374,0.02719126,-0.016165921,-0.015587437,-1.010856,1.0111054,0.0,-0.0,0.8748180927384325,-0.9401278186365474,-136.961138967114,223.038861032886,-113.92402688415964,45.54787314707266,-3.483166435598412,10.605073511679944,1.2998204008031289,-0.0029687514934758,130.18766507339078,0.36673546,-0.0048317276,-0.010111066,-0.9302578,-0.004800341,-0.9069403,636386645
-106.21646589705716,39.9612109733073,2396.7935,0.0,0.0,0.0,39.961203484668,-106.21645906962873,-0.003493632,0.009214244,0.035259046,-0.016092293,-0.016456392,-1.0112923,1.0115542,0.0,-0.0,0.8737542960549338,-0.9403555634567377,-136.95790500066352,223.04209499933648,-114.41276579602828,45.552568223925846,-3.496033327009932,10.613370943624188,1.2995423322239787,-0.0039291166572522,130.18529717881026,0.3667618,-0.0048366967,-0.010103296,-0.9302475,-0.0048071323,-0.9069316,636539140
-106.21646587023632,39.96121092716453,2396.7751,0.0,0.0,0.0,39.961203484668,-106.21645906962873,-0.004384471,0.008830578,0.04881754,-0.016715283,-0.015674852,-1.0135905,1.0138495,0.0,-0.0,0.8757638722917557,-0.9401739973206622,-136.96145221432738,223.03854778567265,-114.31733170422532,45.55967556745259,-3.504348295737336,10.614350859284183,1.29954547168835,-0.0012880317571841,130.1849775253918,0.3667328,-0.0048291027,-0.0101188775,-0.93025875,-0.0047862697,-0.9069305,636695573
-106.21646583889964,39.96121087333112,2396.7776,0.0,0.0,0.0,39.961203484668,-106.21645906962873,-0.0041259527,0.008748799,0.042265132,-0.016557578,-0.015676849,-1.0114529,1.0117098,0.0,-0.0,0.8786286635126498,-0.9325181218227204,-136.95932753439456,223.04067246560544,-113.10789072613116,45.56841867988464,-3.5088042689063124,10.62070811054842,1.2955403362002702,0.005995090797019,130.18204511738097,0.3667505,-0.0047575925,-0.01011772,-0.9302522,-0.004714172,-0.9069203,636855411
-106.21646579674146,39.961210808460834,2396.7554,0.0,0.0,0.0,39.961203484668,-106.21645906962873,-0.0046525737,0.008942587,0.05655082,-0.014442202,-0.017530661,-1.0121875,1.0124424,0.0,-0.0,0.8944299460393019,-0.937172215825656,-136.95688860457577,223.04311139542423,-114.87049212621982,45.57234244204321,-3.509449250769246,10.627870415933884,1.2914055566301563,0.0084234964920829,130.18000871216194,0.36676845,-0.004744568,-0.010260984,-0.9302436,-0.0046799383,-0.90691334,637008427
-106.21646575738416,39.96121074766298,2396.7573,0.0,0.0,0.0,39.961203484668,-106.21645906962873,-0.0051215505,0.008683552,0.05321617,-0.014148392,-0.013128194,-1.0113069,1.0114911,0.0,-0.0,0.8965707451438374,-0.9276329028766008,-136.95731638781325,223.04268361218675,-114.75577919602544,45.57988300758311,-3.5101591055346355,10.631631589777824,1.2815869461895926,0.0184339119971509,130.17813903406932,0.36676562,-0.004660313,-0.010247813,-0.9302453,-0.004564792,-0.9069078,637164315
-106.21646571189756,39.961210676768566,2396.7603,0.0,0.0,0.0,39.961203484668,-106.21645906962873,-0.0049291155,0.007666837,0.045643523,-0.014905583,-0.015403773,-1.0116456,1.0118726,0.0,-0.0,0.9049814790530002,-0.9206538110251342,-136.9575408645675,223.0424591354325,-113.6958378077908,45.59388114371788,-3.5137464112542127,10.635502218548543,1.2788506006700386,0.0303420045919077,130.17626538262377,0.3667637,-0.0045767482,-0.010293741,-0.930246,-0.004460658,-0.9069016,637324145
-106.21646566660264,39.96121060578459,2396.7605,0.0,0.0,0.0,39.961203484668,-106.21645906962873,-0.004736607,0.002552689,0.041315112,-0.013826087,-0.018543987,-1.0098472,1.010112,0.0,-0.0,0.910063072098882,-0.9172670108203208,-136.95827659463825,223.0417234053617,-113.69366074902238,45.60590515849739,-3.521175199178162,10.640431949125263,1.278590971667298,0.0351075992322411,130.17555512831171,0.36675754,-0.004533052,-0.010324121,-0.93024826,-0.0044220514,-0.90689915,637476644
-106.2164656277104,39.96121054469514,2396.7742,0.0,0.0,0.0,39.961203484668,-106.21645906962873,-0.0052148793,0.0024955953,0.02844001,-0.016142156,-0.01662724,-1.0149548,1.0152193,0.0,-0.0,0.9059990184477128,-0.9168391765004577,-136.95659457827972,223.04340542172028,-112.89991549540058,45.60618345244367,-3.5315875175323748,10.64588493349118,1.2765253420596512,0.0336765892116098,130.1742375472034,0.36677155,-0.00454244,-0.010289828,-0.930243,-0.004425902,-0.9068943,637633072
-106.21646558219584,39.96121047326447,2396.7776,0.0,0.0,0.0,39.961203484668,-106.21645906962873,-0.005434522,0.0023694488,0.022251436,-0.014774432,-0.014997455,-1.011742,1.011961,0.0,-0.0,0.9001959564522626,-0.91761934550627,-136.95760859069455,223.04239140930545,-113.44195184148464,45.607441120540656,-3.543150284760133,10.650682164867026,1.2730740385078916,0.0306380606160781,130.17351855759995,0.3667638,-0.0045674434,-0.010245179,-0.9302465,-0.0044373265,-0.906892,637792896
-106.21646553916936,39.9612104085159,2396.7834,0.0,0.0,0.0,39.961203484668,-106.21645906962873,-0.005391379,0.0015892596,0.01635193,-0.014790993,-0.015227181,-1.0126768,1.0128993,0.0,-0.0,0.9186010854025924,-0.9167886844574006,-136.9556592254382,223.0443407745618,-114.16654964138657,45.61356784959061,-3.5569505337435765,10.65635928924417,1.274482602439527,0.0302251170694433,130.1730223691841,0.36677805,-0.0045015966,-0.010392001,-0.93023956,-0.0044458164,-0.90689003,637945201
-106.21646526520092,39.96121002628407,2396.8057,0.0,0.0,0.0,39.961203484668,-106.21645906962873,-0.0035856206,-0.0018499999,0.014410637,-0.014592148,-0.01588416,-1.0092243,1.0094548,0.0,-0.0,0.918937601719052,-0.9196207889648172,-136.95779681974912,223.04220318025088,-113.93870970667923,45.61967438874673,-3.5718898807671047,10.659668374636317,1.2770987501814557,0.0304472964156817,130.16884805114836,0.36676043,-0.0045237034,-0.010403713,-0.9302463,-0.004454047,-0.9068745,638108493
-106.21646522652163,39.961209966144,2396.8108,0.0,0.0,0.0,39.961203484668,-106.21645906962873,-0.0037645316,-0.0017577559,0.010716856,-0.016929902,-0.01748767,-1.012299,1.0125916,0.0,-0.0,0.9184506909420986,-0.9197104905701544,-136.95598690449057,223.04401309550943,-114.15983755310728,45.623551451328765,-3.5824111195373143,10.665032344434954,1.2753286623959057,0.0283138309972316,130.1685583713964,0.36677516,-0.0045258263,-0.010400119,-0.9302405,-0.00446445,-0.90687346,638261657
-106.21646518128784,39.96120989588275,2396.8306,0.0,0.0,0.0,39.961203484668,-106.21645906962873,0.00275424,-0.008567794,-0.0052600633,-0.013711046,-0.015641674,-1.0087955,1.00901,0.0,-0.0,0.9149114074038184,-0.9213638344099916,-136.96117990357473,223.03882009642527,-114.15465071558576,45.626144247526014,-3.595284758630131,10.665274076476411,1.2761673137601997,0.0276288095827776,130.16862642170815,0.36673316,-0.0045510503,-0.010376475,-0.9302572,-0.004472948,-0.9068736,638414132
-106.21646513624464,39.96120982554272,2396.8298,0.0,0.0,0.0,39.961203484668,-106.21645906962873,0.0026359004,-0.009126399,-0.0035802945,-0.016257819,-0.0152032105,-1.0141683,1.0144125,0.0,-0.0,0.911336780970301,-0.9211006251407218,-136.95718467959557,223.04281532040443,-113.60793785115176,45.62864854511509,-3.606278032945996,10.673097846168735,1.271869364486338,0.0238922610432401,130.16888720456052,0.36676595,-0.0045599965,-0.010346774,-0.93024457,-0.004486696,-0.9068748,638577067
-106.21646509770645,39.961209765216815,2396.835,0.0,0.0,0.0,39.961203484668,-106.21645906962873,0.0028603047,-0.009449935,-0.0079740565,-0.014154663,-0.015155637,-1.0117569,1.0119694,0.0,-0.0,0.91017198205678,-0.9189050542046252,-136.95910526368502,223.04089473631493,-114.18969775574482,45.63170166977932,-3.613599564365944,10.67612545586656,1.2679073341300242,0.0232535579195732,130.16797838749184,0.36675063,-0.004546076,-0.010330215,-0.9302508,-0.0044772658,-0.90687174,638730406
-106.2164650754193,39.96120972296399,2396.839,0.0,0.0,0.0,39.961203484668,-106.21645906962873,0.0024483874,-0.00995665,-0.010015671,-0.014605796,-0.014625789,-1.0123476,1.0125586,0.0,-0.0,0.8860414844423203,-0.9105237041896832,-136.95937944945862,223.04062055054132,-113.30638681812216,45.64131726467758,-3.626223750143327,10.680744985329689,1.269329890630331,0.0247165162709563,130.1675166097465,0.36675134,-0.004555315,-0.010107499,-0.93025297,-0.0044709584,-0.90687,638882723
-106.21646505549936,39.96120968348684,2396.8298,0.0,0.0,0.0,39.961203484668,-106.21645906962873,0.0022949998,-0.010356979,-0.0021097325,-0.015295781,-0.016386356,-1.0115049,1.0117532,0.0,-0.0,0.8933652111561909,-0.9096483642763908,-136.9601078961687,223.0398921038313,-114.2197396519849,45.65384509312821,-3.634788261758802,10.684368976901087,1.272824914453543,0.0321165169007507,130.16559872735218,0.36674485,-0.0045248265,-0.010164119,-0.93025506,-0.0044254144,-0.906863,639039323
-106.21646503215678,39.96120963730071,2396.8286,0.0,0.0,0.0,39.961203484668,-106.21645906962873,0.0019516759,-0.010087632,-0.0006123375,-0.01574939,-0.016536389,-1.012321,1.0125785,0.0,-0.0,0.8943047260307481,-0.9059533118005956,-136.95678975796793,223.04321024203207,-114.95139084385764,45.66114003010048,-3.643277716182484,10.691293738736864,1.2713702253647534,0.035954231079399,130.1618683888523,0.36677206,-0.0044915276,-0.01016005,-0.93024457,-0.004390027,-0.90684956,639199154
-106.21646500868007,39.96120959096008,2396.8135,0.0,0.0,0.0,39.961203484668,-106.21645906962873,-0.0017152962,0.00036473502,0.012299229,-0.014609687,-0.01688732,-1.0096873,1.0099342,0.0,-0.0,0.8881382134565011,-0.9078926789143624,-136.95822877006,223.04177122994,-113.6562516607796,45.66162020886054,-3.655211724681765,10.695856187702692,1.2703674691487632,0.0352603677630611,130.16056877389568,0.36676076,-0.0045271413,-0.010116144,-0.93024933,-0.004391947,-0.9068448,639351865
-106.2164649852191,39.96120954449243,2396.8096,0.0,0.0,0.0,39.961203484668,-106.21645906962873,-0.0020186622,0.00015819399,0.015973043,-0.016128646,-0.01201892,-1.0102929,1.0104932,0.0,-0.0,0.8850431256520326,-0.9074037789314768,-136.95588246082258,223.04411753917745,-114.00059564068354,45.66316112848179,-3.667312169184557,10.702644420633808,1.265157361594884,0.0289244067738195,130.16149353351503,0.3667801,-0.0045328755,-0.010089547,-0.93024194,-0.00442285,-0.9068484,639514478
-106.2164649653348,39.96120950475473,2396.808,0.0,0.0,0.0,39.961203484668,-106.21645906962873,-0.0011964105,-0.00061928737,0.016596638,-0.015560774,-0.013895248,-1.0083109,1.0085267,0.0,-0.0,0.8871286579997492,-0.906932378967312,-136.95870871209797,223.04129128790203,-113.88598123865388,45.67033141705136,-3.676320222956479,10.70453242636894,1.265098081376745,0.030601604312245,130.15953457732718,0.36675704,-0.0045226202,-0.010104856,-0.93025094,-0.004409532,-0.9068413,639667907
-106.21646493835406,39.9612094754004,2396.8228,0.0,0.0,0.0,39.961203484668,-106.21645906962873,-0.0010966234,-0.00076514925,0.0045950725,-0.015869692,-0.015647743,-1.0122739,1.0125192,0.0,-0.0,0.9004297506015171,-0.9096732825363836,-136.95508187958453,223.04491812041547,-114.26987440581904,45.68078016646084,-3.685012648205304,10.71228111535673,1.2663258176011702,0.0338964050741615,130.15758340964976,0.36678505,-0.004501963,-0.010221744,-0.9302387,-0.004388145,-0.90683407,639820125
-106.21646491085382,39.96120944561493,2396.8193,0.0,0.0,0.0,39.961203484668,-106.21645906962873,-0.0011469359,-0.0005893288,0.007518704,-0.01435481,-0.015281863,-1.0115979,1.0118151,0.0,-0.0,0.9012189567460124,-0.9124648939243196,-136.95936657710192,223.04063342289808,-113.66617533056268,45.687589465108616,-3.695495087003154,10.712263151193367,1.2664725484011814,0.0372159823435669,130.15798794148245,0.36674988,-0.004522482,-0.010236916,-0.93025225,-0.0043623787,-0.90683573,639976826
-106.21646487803324,39.961209498104566,2396.8335,0.0,0.0,0.0,39.961203484668,-106.21645906962873,-0.0024429683,0.0005124528,-0.0051634805,-0.016551802,-0.015639776,-1.0130116,1.0132675,0.0,-0.0,0.9020486780264528,-0.9114362898900816,-136.95374046542608,223.04625953457392,-114.60801512886724,45.694484818648405,-3.7071377397801535,10.722755049002089,1.2670378563571951,0.0382268906057388,130.15133655452712,0.36679557,-0.0045109726,-0.010240581,-0.93023425,-0.004357048,-0.9068112,640136648
-106.21646484559918,39.96120946299409,2396.8467,0.0,0.0,0.0,39.961203484668,-106.21645906962873,-0.0023264321,-0.0007598137,-0.01560941,-0.014652301,-0.016897751,-1.009114,1.0093619,0.0,-0.0,0.903994819903012,-0.9109548717054275,-136.96099881728497,223.03900118271503,-113.34396301926442,45.702382742730165,-3.7172408260539904,10.721046515262236,1.267329477882863,0.039993359458989,130.153936949856,0.36673653,-0.0045014825,-0.010254553,-0.93025744,-0.00434391,-0.9068209,640288915
-106.21646481313856,39.96120942771121,2396.8596,0.0,0.0,0.0,39.961203484668,-106.21645906962873,-0.0033389349,-0.0010022311,-0.022630133,-0.013776578,-0.016428174,-1.0112491,1.0114764,0.0,-0.0,0.9044742604359398,-0.9160412734364374,-136.9568147335353,223.0431852664647,-113.33327862291256,45.70889269242498,-3.733903271911226,10.728967698630134,1.2706077849813642,0.0392808585258675,130.15317087219506,0.36677003,-0.0045408634,-0.010274889,-0.93024385,-0.004361672,-0.90681773,640452203
-106.21646478544768,39.96120939724791,2396.8667,0.0,0.0,0.0,39.961203484668,-106.21645906962873,-0.003678099,-0.0012254489,-0.027245466,-0.014664456,-0.015801918,-1.0116358,1.0118655,0.0,-0.0,0.9026547953915696,-0.9226390958652856,-136.95835903665875,223.04164096334125,-114.15153013497614,45.7123412706285,-3.7503388378894393,10.7322958778928,1.2738856785544632,0.0337596522207967,130.15295402276453,0.366757,-0.004600389,-0.010281174,-0.93024856,-0.0044174367,-0.9068165,640605392
-106.21646476937713,39.9612093711067,2396.8472,0.0,0.0,0.0,39.961203484668,-106.21645906962873,-0.0040173763,-0.0016945556,-0.008398872,-0.015922401,-0.015108096,-1.0137088,1.0139464,0.0,-0.0,0.8932691803536591,-0.9387430589360904,-136.9574445123625,223.0425554876375,-113.74832968032568,45.71769769836571,-3.769236665559556,10.737701428493386,1.2763066537250465,0.0311816914317395,130.15298200796596,0.36676386,-0.004761087,-0.010256566,-0.93024534,-0.0044467375,-0.90681624,640757634
-106.21646475135168,39.961209339105736,2396.8647,0.0,0.0,0.0,39.961203484668,-106.21645906962873,-0.0037305173,-0.0016191626,-0.023696214,-0.016475173,-0.016233018,-1.0121809,1.0124451,0.0,-0.0,0.8926834575154565,-0.9391988589227164,-136.96178438057717,223.03821561942283,-114.87859236514495,45.72264235682103,-3.7824568293243552,10.738597025624328,1.279723214225157,0.0264578789042007,130.15132471927265,0.36672872,-0.004767049,-0.01025309,-0.9302593,-0.004496831,-0.90680957,640920852
-106.2164647359113,39.96120931168621,2396.8604,0.0,0.0,0.0,39.961203484668,-106.21645906962873,-0.003858323,-0.001325092,-0.01800733,-0.015907966,-0.014939149,-1.0105559,1.0107915,0.0,-0.0,0.8925282160138683,-0.937311121147772,-136.9609883514909,223.0390116485091,-114.1762630607939,45.7278699564054,-3.7895925488064486,10.742482870838629,1.2772577782203174,0.0287217511672949,130.15181862224833,0.3667353,-0.004752151,-0.010245821,-0.9302568,-0.0044698054,-0.9068118,641074153
-106.21646471794976,39.961209279619695,2396.8696,0.0,0.0,0.0,39.961203484668,-106.21645906962873,-0.009510571,-0.0017176056,-0.023081018,-0.014784982,-0.016356869,-1.0095897,1.0098304,0.0,-0.0,0.8902456644038309,-0.9395715139992112,-136.96264867949185,223.0373513205081,-113.4866711154072,45.73132632328738,-3.803544557583204,10.74575382821031,1.277215688879024,0.0273655743475793,130.1513294609152,0.36672184,-0.0047779568,-0.010234457,-0.9302621,-0.004480426,-0.9068099,641226499
-106.21646470262392,39.96120925198867,2396.8647,0.0,0.0,0.0,39.961203484668,-106.21645906962873,-0.010192645,-0.002026483,-0.018054856,-0.014610251,-0.015856845,-1.0125519,1.0127815,0.0,-0.0,0.8890838946357466,-0.9474574156872976,-136.961553952277,223.038446047723,-114.3379798178958,45.734996080544406,-3.818841749604284,10.751055729563644,1.2785220682284293,0.0231410839853101,130.15089219604909,0.3667301,-0.004845597,-0.0102503095,-0.9302583,-0.0045186994,-0.906808,641383072
-106.21646468482928,39.961209219535,2396.8635,0.0,0.0,0.0,39.961203484668,-106.21645906962873,-0.010221068,-0.002355555,-0.016042387,-0.015781496,-0.016060961,-1.0110719,1.0113226,0.0,-0.0,0.8896333983039898,-0.9499262097951864,-136.963732080158,223.036267919842,-114.57152334107548,45.74106358112719,-3.8329323733347658,10.753452147527538,1.2821710856635575,0.0207274032448358,130.15139529908282,0.36671215,-0.0048640743,-0.010262579,-0.9302651,-0.0045511737,-0.9068095,641542900
-106.21646465900004,39.961209177156576,2396.8645,0.0,0.0,0.0,39.961203484668,-106.21645906962873,-0.010309655,-0.0024152857,-0.0158207,-0.017152175,-0.014986987,-1.0105541,1.0108107,0.0,-0.0,0.9148410884203922,-0.9365904921770168,-136.96097816919587,223.03902183080413,-113.51277699163664,45.74801431473223,-3.842701736413356,10.760672623570825,1.2803477367026035,0.0213013879082254,130.1494453184894,0.36673343,-0.0046748673,-0.010424643,-0.93025595,-0.0045401,-0.9068025,641695366
-106.21646463227664,39.96120913378358,2396.88,0.0,0.0,0.0,39.961203484668,-106.21645906962873,-0.004858182,0.00022924517,-0.027881622,-0.017547036,-0.016763892,-1.0119187,1.0122097,0.0,-0.0,0.9174120029141044,-0.9321732719386828,-136.9659025200176,223.0340974799824,-113.85086340651966,45.755742690247686,-3.847612379208082,10.760172104912945,1.2783638476842063,0.0279045539324157,130.15109954181156,0.36669365,-0.0046312255,-0.010431177,-0.9302718,-0.004480404,-0.906809,641851855
-106.21646460101536,39.96120908328716,2396.875,0.0,0.0,0.0,39.961203484668,-106.21645906962873,-0.0046680253,0.0002882526,-0.02173978,-0.01714228,-0.016239256,-1.0117942,1.0120697,0.0,-0.0,0.9189134138891788,-0.9241341930832746,-136.96005827172553,223.03994172827447,-113.59156902674248,45.76326270900863,-3.849962007582045,10.770598061925218,1.272390446816067,0.0345891600005971,130.14414375077172,0.36674163,-0.0045606266,-0.010417872,-0.9302533,-0.0044061583,-0.9067841,642011648
-106.21646459289173,39.96120905127847,2396.8914,0.0,0.0,0.0,39.961203484668,-106.21645906962873,0.0036607261,-0.007453274,-0.026263008,-0.014289448,-0.018539244,-1.0122981,1.0125687,0.0,-0.0,0.9217389180567536,-0.9148786470129932,-136.96619909536702,223.03380090463293,-113.79956398448876,45.77167493175914,-3.850445537251668,10.76972974206483,1.2678069824109248,0.0403596734211117,130.14682676923243,0.36669236,-0.004477002,-0.010410947,-0.93027323,-0.0043433993,-0.9067946,642163745
-106.21646456647416,39.96120900812165,2396.8752,0.0,0.0,0.0,39.961203484668,-106.21645906962873,0.0056076385,-0.0062069376,-0.012076755,-0.012738297,-0.01518675,-1.0110035,1.0111978,0.0,-0.0,0.9233606711689704,-0.9138854873609836,-136.96056409505098,223.03943590494904,-113.7990450872,45.77859062290297,-3.858744307856436,10.778496806004162,1.2652815957217092,0.046845406620203,130.14351268049458,0.36673805,-0.004463236,-0.010421153,-0.9302552,-0.0042830827,-0.9067829,642320580
-106.21646453593702,39.96120895753668,2396.8774,0.0,0.0,0.0,39.961203484668,-106.21645906962873,0.004723604,-0.0070888046,-0.01188748,-0.012334518,-0.018412648,-1.0101526,1.0103956,0.0,-0.0,0.924097033766846,-0.9204388728967628,-136.96509520963403,223.034904790366,-114.07042854755684,45.78497840486629,-3.875671843743684,10.778894890126557,1.269421326317669,0.0442856625344613,130.14647531833816,0.36670065,-0.004514491,-0.010447926,-0.9302694,-0.0043183,-0.90679336,642480402
-106.21646451943772,39.96120892205818,2396.893,0.0,0.0,0.0,39.961203484668,-106.21645906962873,0.003501338,-0.0071509816,-0.023828015,-0.015502613,-0.015756581,-1.0105258,1.0107676,0.0,-0.0,0.8915820064127384,-0.9188918959554114,-136.96001791350744,223.03998208649256,-114.038813882272,45.78572756402751,-3.896480069637827,10.789696974330177,1.2702050035443893,0.0397896702234221,130.1420105942986,0.3667449,-0.0046055666,-0.010179231,-0.93025446,-0.0043571577,-0.90677667,642632704
-106.21646450101667,39.96120888177536,2396.889,0.0,0.0,0.0,39.961203484668,-106.21645906962873,0.008083276,-0.0048191566,-0.018257827,-0.0170019,-0.016468069,-1.0109963,1.0112734,0.0,-0.0,0.8877129671960835,-0.9216172509183695,-136.96393472533964,223.0360652746604,-113.90989579827364,45.78701410029908,-3.911566464271597,10.790057590235929,1.2727241677502668,0.0307816366038644,130.1439048756454,0.36671323,-0.0046404246,-0.010156387,-0.93026704,-0.0044375365,-0.9067831,642796037
-106.2164644851336,39.96120884727026,2396.8757,0.0,0.0,0.0,39.961203484668,-106.21645906962873,0.008116023,-0.004265558,-0.0070770206,-0.017107688,-0.0151952775,-1.0117373,1.011996,0.0,-0.0,0.8860224747468117,-0.9182824982771522,-136.9564074260466,223.0435925739534,-113.57015328371166,45.79102813108627,-3.917196441888204,10.802032097244783,1.2668878961149976,0.0324344708368192,130.13444985455715,0.36677477,-0.004618099,-0.010132296,-0.93024313,-0.004403829,-0.9067489,642949141
-106.21646446654044,39.96120880716535,2396.8674,0.0,0.0,0.0,39.961203484668,-106.21645906962873,0.0022189133,0.0025752375,-0.0009522748,-0.014872398,-0.014685047,-1.0114424,1.0116583,0.0,-0.0,0.8897502617305902,-0.9054367734947252,-136.9638130724445,223.0361869275555,-114.0111619924059,45.800278997822566,-3.9153673410469474,10.799897762934018,1.265218506363106,0.0388207672575188,130.13611077673806,0.36671546,-0.004502537,-0.01012115,-0.9302672,-0.004347007,-0.90675545,643101382
-106.21646444808836,39.96120876712517,2396.8723,0.0,0.0,0.0,39.961203484668,-106.21645906962873,0.0015483696,0.0021640665,-0.0054928,-0.013324255,-0.015725363,-1.0126228,1.0128326,0.0,-0.0,0.8943706271796174,-0.895288560977115,-136.96018963939528,223.03981036060472,-113.08707793327976,45.81118063550522,-3.91559907475609,10.80685029813227,1.2546121288779393,0.0529969376368013,130.13799862646908,0.36674535,-0.004405042,-0.01012632,-0.93025583,-0.0041956496,-0.90676385,643264378
-106.2164644324015,39.961208732584645,2396.8555,0.0,0.0,0.0,39.961203484668,-106.21645906962873,0.0010661145,0.0018381793,0.00783687,-0.013194398,-0.016659819,-1.009969,1.0101926,0.0,-0.0,0.8940587736502505,-0.8922137148264423,-136.96504459060787,223.03495540939213,-113.52646296237629,45.81585351133901,-3.923351910696797,10.80698495038336,1.2502525650387717,0.0560151399672821,130.13890193331835,0.36670625,-0.004381507,-0.010113762,-0.9302715,-0.004155651,-0.9067676,643417895
-106.2164644055283,39.96120870255614,2396.8572,0.0,0.0,0.0,39.961203484668,-106.21645906962873,0.0005116868,0.0014163877,0.0063199047,-0.015763244,-0.014134423,-1.0099491,1.0101709,0.0,-0.0,0.91869253656269,-0.9044871201775594,-136.96050641448392,223.03949358551608,-114.40454324678689,45.8204022224055,-3.9397839988500345,10.815676604503432,1.2511922381375402,0.0538942118510763,130.13687163529914,0.36673987,-0.004401878,-0.010353183,-0.9302556,-0.0041760695,-0.90676,643570158
-106.21646437364554,39.96120866720588,2396.8647,0.0,0.0,0.0,39.961203484668,-106.21645906962873,0.0007657276,0.00080000935,0.00019086851,-0.014457179,-0.015742015,-1.0118052,1.0120308,0.0,-0.0,0.9209950197162594,-0.9104854178955344,-136.96541587479396,223.03458412520604,-114.03800594502196,45.82866060487527,-3.9577662656716392,10.81529796851306,1.2565401219036418,0.0511952598011605,130.13698036773707,0.36669925,-0.0044436464,-0.0103908805,-0.93027097,-0.004217088,-0.90675986,643733547
-106.2164643464487,39.96120863685779,2396.855,0.0,0.0,0.0,39.961203484668,-106.21645906962873,7.5501855e-05,0.00064744893,0.007415561,-0.014790975,-0.017703557,-1.0138001,1.0140626,0.0,-0.0,0.9194664355596798,-0.9184575387520472,-136.95911332304738,223.04088667695265,-113.83133887916308,45.8322413587305,-3.9747707880581538,10.82592034194665,1.2635804853229424,0.0443998736597185,130.13029470516437,0.3667498,-0.0045126867,-0.010404231,-0.9302505,-0.00429735,-0.9067344,643886656
-106.21646430424094,39.961208654839474,2396.861,0.0,0.0,0.0,39.961203484668,-106.21645906962873,0.0033742075,-0.007594254,-0.0032071494,-0.016167179,-0.015435352,-1.0113183,1.0115653,0.0,-0.0,0.9148205980145376,-0.9227116372945332,-136.96326238826427,223.03673761173573,-113.01622338881045,45.833537953865935,-3.991978099279836,10.82584115502605,1.263377478738818,0.0406212571919533,130.13377412181728,0.36671615,-0.004562471,-0.010379968,-0.9302638,-0.0043261945,-0.90674704,644040493
-106.21646427240356,39.96120861929787,2396.8506,0.0,0.0,0.0,39.961203484668,-106.21645906962873,0.0035316923,-0.008319583,0.005211865,-0.0154737495,-0.013425225,-1.0129389,1.0131459,0.0,-0.0,0.9155246361790138,-0.9236311281545968,-136.9620518768694,223.0379481231306,-113.70558374411485,45.83964766054175,-4.00362825427135,10.832316532555843,1.2644302841171238,0.0373814536849423,130.13077910309755,0.36672583,-0.004567572,-0.010388674,-0.9302599,-0.004355969,-0.9067357,644202004
-106.21646424532508,39.96120858896607,2396.8533,0.0,0.0,0.0,39.961203484668,-106.21645906962873,0.003733319,-0.008852012,0.002802434,-0.015344638,-0.01685573,-1.0120385,1.0122951,0.0,-0.0,0.918433087770915,-0.9237418152627692,-136.96579780931242,223.0342021906876,-114.2342416239213,45.84775803828558,-4.01431495105186,10.832636625580813,1.2653563192528876,0.0404444352577027,130.13332932715457,0.36669514,-0.0045595,-0.010412489,-0.93027174,-0.0043349126,-0.9067452,644355409
-106.21646421472228,39.96120856028754,2396.872,0.0,0.0,0.0,39.961203484668,-106.21645906962873,0.0035674167,-0.008378492,-0.012769584,-0.016739536,-0.01635377,-1.0115205,1.0117911,0.0,-0.0,0.9042939588553336,-0.8969891764567511,-136.96311717880445,223.03688282119555,-114.35085779311775,45.85701967662824,-4.019804023980671,10.840378277503214,1.2655788983877512,0.0441166335710844,130.13049445645265,0.3667206,-0.004387339,-0.010212204,-0.9302648,-0.0043069255,-0.90673494,644507759
-106.21646418325604,39.961208531914345,2396.8616,0.0,0.0,0.0,39.961203484668,-106.21645906962873,0.0036261762,-0.007883359,-0.003117894,-0.01679444,-0.017225366,-1.0113294,1.0116155,0.0,-0.0,0.9025225645043848,-0.8830516203677559,-136.96592191350118,223.0340780864988,-114.06956920079668,45.86091864184022,-4.0151377384247,10.841741313420266,1.2534948402672843,0.0541184778739223,130.13095396713263,0.36669925,-0.0042801113,-0.010153117,-0.93027437,-0.0041832873,-0.90673804,644664346
-106.216464146355,39.96120849878894,2396.8486,0.0,0.0,0.0,39.961203484668,-106.21645906962873,0.0033214136,-0.00746591,0.007811001,-0.012547944,-0.01607725,-1.014063,1.014268,0.0,-0.0,0.8952868528509123,-0.872746308153658,-136.96303638072442,223.0369636192756,-114.1496615657192,45.86025969533092,-4.014356168594192,10.849733185305777,1.2381661118794254,0.0571697007939205,130.12650162338997,0.3667242,-0.0042193597,-0.010061507,-0.9302658,-0.004103141,-0.906723,644824154
-106.21646410958904,39.96120846540991,2396.8533,0.0,0.0,0.0,39.961203484668,-106.21645906962873,0.0060911654,0.00077697285,0.0022341479,-0.014497498,-0.015161502,-1.0138242,1.0140412,0.0,-0.0,0.8925163893597702,-0.8693786955448133,-136.961210078787,223.038789921213,-113.38246397720364,45.862034117553016,-4.021717286470564,10.856795692434185,1.2348827392323634,0.0587103068118443,130.12447553738346,0.36673948,-0.0042007314,-0.010028306,-0.9302601,-0.004079047,-0.9067159,644976466
-106.21646407302318,39.96120843199668,2396.8494,0.0,0.0,0.0,39.961203484668,-106.21645906962873,0.005756614,-0.00011687819,0.0054240916,-0.013354977,-0.012488235,-1.0125703,1.0127352,0.0,-0.0,0.8967916530267113,-0.8707335859657587,-136.96249842935555,223.03750157064445,-113.70898269315532,45.87217872023067,-4.034485116279315,10.860452354429691,1.2335424875388297,0.0612866664674547,130.12240680134877,0.36672857,-0.0041981563,-0.010067301,-0.93026406,-0.0040539107,-0.9067085,645139689
-106.21646404201292,39.96120840345291,2396.8643,0.0,0.0,0.0,39.961203484668,-106.21645906962873,0.0058230157,-0.0009769117,-0.007782327,-0.014671853,-0.014782206,-1.0122637,1.0124779,0.0,-0.0,0.90646055849717,-0.8775578534303555,-136.96344277401403,223.036557225986,-114.021738838814,45.88675966190264,-4.050786331155509,10.863234520975723,1.2459609557394669,0.0631909822833457,130.12200963940435,0.36671945,-0.0042226873,-0.010167595,-0.93026644,-0.004084571,-0.906706,645292895
-106.21646400722072,39.96120837448737,2396.8872,0.0,0.0,0.0,39.961203484668,-106.21645906962873,0.0052773585,-0.001443323,-0.025309801,-0.014155071,-0.018110475,-1.0101501,1.0104115,0.0,-0.0,0.9192796515407788,-0.9101864610986224,-136.96079072828547,223.03920927171453,-113.45956954289358,45.89892314902208,-4.072616058468897,10.869999824973563,1.2519441654246746,0.0607153695186038,130.11880273092024,0.3667369,-0.004446293,-0.010376178,-0.9302562,-0.004126457,-0.9066937,645445399
-106.21646396916992,39.96120833914281,2396.899,0.0,0.0,0.0,39.961203484668,-106.21645906962873,0.0048328675,-0.0011002815,-0.033249103,-0.015936762,-0.018908586,-1.0130618,1.0133635,0.0,-0.0,0.915479374379592,-0.9133145219247092,-136.9600653371323,223.0399346628677,-113.6854400838271,45.90187604814359,-4.087225137502189,10.875311465535136,1.2568430753307116,0.0600646472388639,130.1190217256847,0.36674288,-0.004483787,-0.010355368,-0.9302539,-0.004149613,-0.906694,645608254
-106.2164639363818,39.961208308757264,2396.8843,0.0,0.0,0.0,39.961203484668,-106.21645906962873,0.004600421,-0.00064734975,-0.01799155,-0.015961336,-0.014921459,-1.0100414,1.0102776,0.0,-0.0,0.9127523420076372,-0.907955248399226,-136.9592729950031,223.0407270049969,-114.04315897549964,45.903224308689154,-4.09152546012932,10.880874934146648,1.250000957445662,0.0596009446629284,130.1158884156386,0.36675006,-0.004448939,-0.01031611,-0.9302517,-0.0041283816,-0.9066831,645761655
-106.216463898279,39.96120827348435,2396.8855,0.0,0.0,0.0,39.961203484668,-106.21645906962873,0.0011954902,-0.008272418,-0.018191405,-0.015263408,-0.013954085,-1.0155997,1.0158103,0.0,-0.0,0.9164855519477878,-0.9030734038569256,-136.96265837935857,223.03734162064143,-113.67154256278351,45.91265153412187,-4.098460554903612,10.881895131071817,1.2458708605168578,0.0638687540595437,130.1189153626201,0.36672264,-0.0043976624,-0.01033066,-0.93026257,-0.0040791486,-0.9066947,645914015
-106.2164637762844,39.961208287168574,2396.8816,0.0,0.0,0.0,39.961203484668,-106.21645906962873,-0.0014077029,-0.010191868,-0.015269253,-0.014068031,-0.015436911,-1.0092632,1.0094793,0.0,-0.0,0.9243462407634442,-0.8997950091556619,-136.9597097257896,223.0402902742104,-114.1212322242378,45.92556305858748,-4.10550437644706,10.88879502735165,1.2508481867029138,0.0711656543283241,130.113059711023,0.36674622,-0.004345616,-0.010384091,-0.93025297,-0.0040402464,-0.9066731,646070570
-106.21646373847727,39.961208251536185,2396.8748,0.0,0.0,0.0,39.961203484668,-106.21645906962873,-0.0020348635,-0.010171648,-0.00768098,-0.015082484,-0.018669251,-1.0139339,1.014218,0.0,-0.0,0.9242160130018146,-0.8987417826347289,-136.96219970063913,223.03780029936087,-113.79721870548316,45.9323855774475,-4.114560582896717,10.891315695890317,1.2482908147738898,0.074722365940839,130.11508235404978,0.36672607,-0.004337709,-0.010379569,-0.93026096,-0.0040025148,-0.90668076,646230395
-106.21646372103808,39.961208205474016,2396.867,0.0,0.0,0.0,39.961203484668,-106.21645906962873,-0.0026326824,-0.00973896,-0.0007653963,-0.014522612,-0.015767667,-1.011177,1.0114042,0.0,-0.0,0.922347151916162,-0.8825432036466544,-136.95854873739054,223.04145126260943,-113.63140219758212,45.935892486178986,-4.127561650410017,10.899470968425904,1.248587281869412,0.0755660761836117,130.1121164615609,0.3667574,-0.004211861,-0.010312692,-0.93025,-0.0039971927,-0.9066699,646382508
-106.21646370460788,39.961208159157,2396.8694,0.0,0.0,0.0,39.961203484668,-106.21645906962873,-0.0056543164,-0.012126482,-0.0030090504,-0.014055927,-0.016426455,-1.0132412,1.0134718,0.0,-0.0,0.9197403122124888,-0.8848496649975423,-136.9601699057511,223.0398300942489,-113.55128594722952,45.93855290634606,-4.139592415737022,10.902071869757934,1.248328000042842,0.0704334071990271,130.11064717464237,0.36674422,-0.004239077,-0.010298853,-0.9302552,-0.0040369793,-0.9066643,646539329
-106.21646368553046,39.96120810500472,2396.8657,0.0,0.0,0.0,39.961203484668,-106.21645906962873,-0.0061244713,-0.012270765,-0.0006703092,-0.015056571,-0.014957652,-1.0092838,1.0095068,0.0,-0.0,0.9184478644573052,-0.8898009116493044,-136.9554674646692,223.0445325353308,-113.4188736413668,45.942842705330094,-4.156295004253218,10.91046025089885,1.249833131755484,0.0666717785888431,130.1057762716018,0.36678204,-0.0042829867,-0.010304383,-0.93024,-0.004072712,-0.90664613,646699145
-106.21646366643766,39.96120805086792,2396.8706,0.0,0.0,0.0,39.961203484668,-106.21645906962873,0.0010496636,-0.0077997893,-0.0042091804,-0.015579365,-0.016792702,-1.0124775,1.0127367,0.0,-0.0,0.9176325760423184,-0.885223737971329,-136.95702457865465,223.0429754213453,-113.98629434831696,45.94784937639472,-4.161895791653672,10.91450615679075,1.246441168653995,0.069236544809721,130.10559125378296,0.36676988,-0.00424858,-0.010283057,-0.93024516,-0.0040399516,-0.9066458,646851357
-106.21646364730786,39.96120799668999,2396.8708,0.0,0.0,0.0,39.961203484668,-106.21645906962873,-0.00056886347,-0.009042263,-0.004901528,-0.01558988,-0.015075832,-1.0116476,1.01188,0.0,-0.0,0.9198752317569892,-0.8823465614084097,-136.95487975227545,223.04512024772453,-114.1279636285922,45.95577595605627,-4.169836213253783,10.920593471669063,1.2440590218898582,0.0721386999582055,130.10415319360433,0.36678734,-0.0042178505,-0.010292131,-0.9302383,-0.0040083486,-0.9066409,647014468
-106.2164636309695,39.9612079502887,2396.886,0.0,0.0,0.0,39.961203484668,-106.21645906962873,-0.00037252647,-0.009671312,-0.017442469,-0.013936084,-0.0155539485,-1.0129821,1.0131974,0.0,-0.0,0.9236853065747134,-0.8843923121441539,-136.9611916674733,223.0388083325267,-113.31412692622632,45.9650726426506,-4.1826147405298375,10.91846161022366,1.247143237497483,0.0744491082661165,130.1077952024029,0.36673558,-0.0042228275,-0.010329375,-0.9302583,-0.0040010987,-0.90665406,647167906
-106.216463606371,39.96120792806044,2396.8838,0.0,0.0,0.0,39.961203484668,-106.21645906962873,-0.0010856758,-0.009801351,-0.014608463,-0.015008867,-0.017962132,-1.0119296,1.0122004,0.0,-0.0,0.9225532999745824,-0.903750215253712,-136.95725823997046,223.0427417600296,-114.85880995870968,45.97030703294393,-4.199336181052255,10.92676111779548,1.2488953577330195,0.0742289179715603,130.10620611237115,0.36676592,-0.004383242,-0.010382289,-0.93024504,-0.0040094303,-0.90664804,647320364
-106.21646357633767,39.961207903805175,2396.8828,0.0,0.0,0.0,39.961203484668,-106.21645906962873,-0.0017273459,-0.009229127,-0.012843877,-0.015414212,-0.016808985,-1.012186,1.012443,0.0,-0.0,0.914607564571842,-0.9080517674341526,-136.96420990419634,223.0357900958037,-114.17274881317908,45.96777331522853,-4.2164525768547865,10.925128020508826,1.2503095222936789,0.0642361271026799,130.10726159837336,0.36670974,-0.0044442294,-0.010331287,-0.9302674,-0.0040936046,-0.9066515,647483319
-106.21646355056046,39.96120788290531,2396.891,0.0,0.0,0.0,39.961203484668,-106.21645906962873,-0.0019628066,-0.00922564,-0.019204017,-0.01566406,-0.014513983,-1.009924,1.0101497,0.0,-0.0,0.9100915209082108,-0.9103462228225352,-136.9591697096025,223.0408302903975,-114.03854637765885,45.96813817594247,-4.227925215266376,10.933641361044725,1.2474253458587783,0.0580877376628802,130.10389279452676,0.36675096,-0.004476858,-0.010302167,-0.9302514,-0.0041319323,-0.9066391,647636650
-106.21646352053796,39.96120785846115,2396.915,0.0,0.0,0.0,39.961203484668,-106.21645906962873,-0.0023792922,-0.011722063,-0.036774952,-0.015412433,-0.014236464,-1.0114738,1.0116913,0.0,-0.0,0.9142877259629332,-0.9095767594590254,-136.9582895242457,223.0417104757543,-113.32378331460107,45.97755383569623,-4.2384937774703335,10.939576583203236,1.2486419866244571,0.0585305513171038,130.10173026445847,0.36675775,-0.0044570984,-0.010333802,-0.93024844,-0.0041330974,-0.90663105,647789165
-106.2164634906977,39.96120783417576,2396.912,0.0,0.0,0.0,39.961203484668,-106.21645906962873,-0.00138944,-0.011897828,-0.031659324,-0.015936283,-0.015158947,-1.0123581,1.012597,0.0,-0.0,0.9239424540089298,-0.9028473749144011,-136.95881921810076,223.04118078189924,-113.91040130969483,45.993133284455126,-4.243156384426692,10.943405029830677,1.2488028235993434,0.0702805767974499,130.10071301631302,0.36675316,-0.0043716077,-0.010390616,-0.93025,-0.004040815,-0.9066277,647951923
-106.21646350483437,39.96120783187924,2396.9307,0.0,0.0,0.0,39.961203484668,-106.21645906962873,-0.0012264937,-0.011644542,-0.027746934,-0.013426918,-0.017708011,-1.0111557,1.0113999,0.0,-0.0,0.9260457297799536,-0.8988632559931429,-136.95992985929132,223.04007014070868,-114.126119088498,46.00165706102207,-4.247624476242883,10.946052409380794,1.2470614231844683,0.0780871900114779,130.1004740765348,0.36674434,-0.0043326314,-0.010394896,-0.9302536,-0.0039726617,-0.90662724,648105406
-106.2164634893081,39.96120779180976,2396.9324,0.0,0.0,0.0,39.961203484668,-106.21645906962873,-0.0025415667,-0.011424524,-0.026159007,-0.013369061,-0.017994639,-1.012581,1.0128292,0.0,-0.0,0.9193922492923322,-0.8800767346091778,-136.95638859535546,223.0436114046445,-113.98297231185067,46.00194678517423,-4.259050788807592,10.954745365463337,1.243695665178305,0.0787626070680066,130.09770201181152,0.36677536,-0.004201106,-0.01028089,-0.93024325,-0.003955174,-0.90661734,648257451
-106.21646347160528,39.96120774272479,2396.9414,0.0,0.0,0.0,39.961203484668,-106.21645906962873,-0.002966246,-0.011433495,-0.032011244,-0.013393397,-0.016608056,-1.0097922,1.0100176,0.0,-0.0,0.9113185526636798,-0.8906170444535927,-136.95713519505924,223.0428648049408,-114.818462187022,45.99991927823336,-4.280054912485177,10.958805520655456,1.2443360354426982,0.0669521482115688,130.0969097205873,0.36676908,-0.0043125874,-0.010249061,-0.9302456,-0.004051042,-0.906614,648420778
-106.21646345659124,39.96120770047725,2396.9377,0.0,0.0,0.0,39.961203484668,-106.21645906962873,-0.0032621657,-0.011885893,-0.026068628,-0.015981022,-0.013747648,-1.0113965,1.0116162,0.0,-0.0,0.9083913012389572,-0.8994088450215068,-136.95541735401954,223.04458264598048,-113.44105925087904,46.00237155808926,-4.2996709433020825,10.964880810124196,1.2499712075929177,0.0563075971712372,130.09335603641793,0.3667825,-0.004393177,-0.010253504,-0.93023986,-0.0041563157,-0.9066,648574149
-106.21646343922149,39.961207651262825,2396.9316,0.0,0.0,0.0,39.961203484668,-106.21645906962873,0.002872936,-0.0065323953,-0.01841361,-0.015495231,-0.015177791,-1.0115118,1.0117444,0.0,-0.0,0.9091795977422888,-0.9056705314101002,-136.9546480713272,223.0453519286728,-114.16341024615588,46.00844463882107,-4.318029964885447,10.970853041198565,1.2535876783980708,0.0535004321052908,130.091501965713,0.3667881,-0.004441416,-0.010279975,-0.9302371,-0.004192002,-0.9065928,648726859
-106.21646342439702,39.96120760914638,2396.934,0.0,0.0,0.0,39.961203484668,-106.21645906962873,0.0033111677,-0.006390218,-0.020333448,-0.017657805,-0.0153967915,-1.0134478,1.0137185,0.0,-0.0,0.9106249665747556,-0.9055898326621789,-136.95208197167798,223.047918028322,-113.448254172243,46.015210674525726,-4.3277774676444025,10.97719466322128,1.2552291821458987,0.0539956608377517,130.08794698446945,0.36680877,-0.004435903,-0.010291548,-0.9302288,-0.0041944417,-0.90657955,648883074
-106.21646340697455,39.96120756012044,2396.9277,0.0,0.0,0.0,39.961203484668,-106.21645906962873,0.0038174414,-0.0059800996,-0.014165906,-0.01596647,-0.015710779,-1.0112807,1.0115287,0.0,-0.0,0.9155085255850536,-0.8955538390875626,-136.95382357638195,223.04617642361805,-114.00951474639524,46.0255720364356,-4.3298938441924335,10.980142238318816,1.2509973071446363,0.0649209134715874,130.08766010958885,0.36679512,-0.004338952,-0.010298999,-0.9302346,-0.004092452,-0.90657926,649042898
-106.21646338070607,39.96120753962525,2396.9329,0.0,0.0,0.0,39.961203484668,-106.21645906962873,0.0030120756,-0.0061935326,-0.017672148,-0.012937485,-0.016907182,-1.0114193,1.0116433,0.0,-0.0,0.8935320136096222,-0.9027113588582412,-136.9534058053778,223.0465941946222,-113.55664201162618,46.03602764791882,-4.33890319163509,10.986039639784618,1.250747006179639,0.0682214913481259,130.08630791429266,0.3667999,-0.004467384,-0.010143533,-0.9302339,-0.004065538,-0.9065745,649195242
